Sample, Time, ACCX, ACCY, ACCZ, MAGX, MAGY, MAGZ, GYRX, GYRY, GYRZ
0,49182.611000,-77.828,-12.142,-239.197,54.007,-410.400,-267.789,-51.500,10.760,20.780
1,49182.653000,-78.807,-14.166,-240.185,56.979,-418.167,-265.864,-22.500,23.760,29.780
2,49182.681000,-78.807,-16.190,-235.243,49.193,-413.254,-270.654,-4.500,52.760,34.780
3,49182.689000,-74.891,-14.166,-233.266,51.114,-407.467,-271.679,12.500,119.760,59.780
4,49182.704000,-69.017,-15.178,-231.290,54.120,-413.297,-272.710,29.500,136.760,84.780
5,49182.718000,-70.975,-19.225,-228.324,51.131,-405.530,-273.650,36.500,133.760,108.780
6,49182.746000,-69.996,-20.237,-227.336,49.245,-411.316,-274.595,19.500,175.760,103.780
7,49182.768000,-67.059,-22.261,-227.336,48.221,-404.534,-275.569,-11.500,169.760,110.780
8,49182.786000,-61.185,-23.273,-232.278,43.364,-406.423,-276.465,-54.500,82.760,111.780
9,49182.808000,-62.164,-28.332,-236.232,43.381,-406.422,-277.450,-97.500,-36.240,95.780
10,49182.826000,-69.996,-24.285,-238.208,44.413,-410.300,-278.448,-121.500,-83.240,51.780
11,49182.849000,-72.933,-17.202,-240.185,47.269,-407.427,-275.549,-124.500,-134.240,27.780
12,49182.866000,-72.933,-10.119,-243.151,45.321,-408.377,-275.513,-122.500,-131.240,-7.220
13,49182.879000,-74.891,-4.047,-246.116,38.455,-408.316,-274.407,-105.500,-103.240,-26.220
14,49182.896000,-73.912,-8.095,-245.127,39.399,-412.198,-270.482,-77.500,-34.240,-4.220
15,49182.923000,-72.933,-9.107,-242.162,41.391,-410.278,-273.473,-49.500,20.760,4.780
16,49182.946000,-73.912,-8.095,-239.197,35.475,-405.388,-273.374,-20.500,41.760,3.780
17,49182.968000,-75.870,-10.119,-237.220,42.447,-411.250,-277.428,-3.500,78.760,4.780
18,49183.2000,-72.933,-10.119,-235.243,42.420,-408.348,-277.431,6.500,109.760,8.780
19,49183.5000,-70.975,-11.130,-234.255,38.489,-406.378,-277.364,9.500,109.760,18.780
20,49183.26000,-67.059,-14.166,-232.278,38.523,-406.376,-279.333,-3.500,77.760,17.780
21,49183.48000,-70.975,-13.154,-233.266,34.593,-408.277,-277.292,-22.500,21.760,-0.220
22,49183.68000,-70.975,-10.119,-232.278,41.389,-404.471,-276.433,-40.500,-21.240,-15.220
23,49183.101000,-72.933,-10.119,-235.243,34.548,-403.440,-277.297,-53.500,-45.240,-28.220
24,49183.133000,-75.870,-5.059,-238.208,39.476,-407.354,-277.380,-51.500,-38.240,-36.220
25,49183.153000,-76.849,-3.036,-240.185,37.519,-407.336,-277.345,-41.500,-3.240,-56.220
26,49183.159000,-77.828,-3.036,-242.162,41.441,-406.404,-278.400,-20.500,30.760,-53.220
27,49183.178000,-75.870,-9.107,-242.162,38.480,-407.346,-276.378,9.500,65.760,-27.220
28,49183.196000,-70.975,-11.130,-239.197,34.592,-404.405,-279.266,18.500,76.760,-9.220
29,49183.218000,-65.101,-10.119,-238.208,44.350,-401.592,-279.442,29.500,50.760,13.780
30,49183.237000,-63.143,-10.119,-240.185,41.450,-405.435,-279.386,28.500,-29.240,21.780
31,49183.258000,-68.038,-8.095,-241.174,37.467,-407.339,-274.391,25.500,-84.240,-0.220
32,49183.281000,-70.975,-5.059,-239.197,48.292,-410.337,-276.548,29.500,-83.240,-35.220
33,49183.298000,-69.996,-3.036,-240.185,42.429,-409.316,-277.430,30.500,-58.240,-58.220
34,49183.321000,-73.912,-8.095,-237.220,42.438,-410.283,-277.429,34.500,-1.240,-68.220
35,49183.338000,-76.849,-9.107,-237.220,47.348,-408.391,-279.487,56.500,91.760,-74.220
36,49183.356000,-75.870,-8.095,-234.255,47.356,-409.358,-279.486,87.500,180.760,-45.220
37,49183.383000,-69.996,-12.142,-231.290,46.412,-405.476,-283.412,99.500,210.760,-28.220
38,49183.404000,-62.164,-12.142,-228.324,43.423,-401.580,-282.379,103.500,229.760,11.780
39,49183.427000,-53.354,-13.154,-227.336,47.441,-403.546,-287.370,80.500,154.760,38.780
40,49183.444000,-52.375,-17.202,-226.347,49.347,-403.567,-284.450,37.500,3.760,31.780
41,49183.467000,-56.291,-19.225,-230.301,45.467,-401.593,-287.337,9.500,-104.240,6.780
42,49183.489000,-66.080,-17.202,-232.278,52.195,-399.727,-281.552,-2.500,-108.240,-6.220
43,49183.512000,-70.975,-18.213,-231.290,42.480,-403.505,-283.344,-11.500,-51.240,-2.220
44,49183.529000,-69.017,-16.190,-234.255,43.432,-402.548,-282.378,-9.500,-13.240,12.780
45,49183.562000,-66.080,-13.154,-238.208,45.433,-403.531,-284.381,-0.500,-5.240,26.780
46,49183.572000,-68.038,-15.178,-241.174,41.397,-401.566,-278.405,3.500,-1.240,31.780
47,49183.604000,-70.975,-13.154,-241.174,48.334,-405.495,-281.477,21.500,17.760,33.780
48,49183.623000,-73.912,-12.142,-239.197,49.321,-404.536,-282.480,37.500,47.760,32.780
49,49183.642000,-67.059,-14.166,-238.208,46.420,-404.507,-284.397,40.500,28.760,20.780
50,49183.648000,-65.101,-13.154,-237.220,42.392,-399.639,-280.394,33.500,-47.240,4.780
51,49183.671000,-69.017,-14.166,-236.232,44.402,-403.525,-281.409,28.500,-60.240,0.780
52,49183.693000,-72.933,-13.154,-235.243,49.268,-402.603,-280.512,34.500,-36.240,-4.220
53,49183.718000,-73.912,-13.154,-233.266,47.303,-401.618,-280.479,40.500,2.760,-6.220
54,49183.738000,-71.954,-16.190,-235.243,46.394,-405.477,-282.427,35.500,34.760,-27.220
55,49183.744000,-67.059,-18.213,-235.243,49.269,-404.539,-279.525,30.500,40.760,-37.220
56,49183.772000,-66.080,-19.225,-234.255,48.456,-409.360,-286.397,19.500,34.760,-46.220
57,49183.794000,-63.143,-17.202,-236.232,47.320,-401.617,-281.463,6.500,32.760,-53.220
58,49183.814000,-64.122,-17.202,-235.243,56.126,-401.697,-281.619,2.500,17.760,-53.220
59,49183.834000,-63.143,-18.213,-234.255,56.074,-401.700,-278.665,3.500,1.760,-39.220
60,49183.867000,-64.122,-17.202,-234.255,51.286,-403.585,-283.500,6.500,4.760,-27.220
61,49183.886000,-61.185,-16.190,-236.232,55.148,-403.624,-280.615,9.500,11.760,-21.220
62,49183.899000,-60.207,-16.190,-236.232,50.299,-402.609,-283.484,7.500,-0.240,-12.220
63,49183.924000,-61.185,-14.166,-234.255,51.208,-402.622,-279.562,7.500,-2.240,-9.220
64,49183.947000,-67.059,-16.190,-233.266,50.265,-404.547,-280.527,6.500,-1.240,-5.220
65,49183.967000,-67.059,-18.213,-232.278,51.312,-402.616,-285.471,5.500,16.760,6.780
66,49183.987000,-62.164,-19.225,-233.266,52.273,-402.626,-284.503,11.500,40.760,20.780
67,49184.2000,-61.185,-18.213,-234.255,53.278,-403.601,-285.504,8.500,11.760,23.780
68,49184.22000,-65.101,-16.190,-233.266,47.372,-403.550,-283.431,3.500,-33.240,23.780
69,49184.44000,-69.996,-17.202,-232.278,50.326,-405.511,-283.481,-0.500,-30.240,18.780
70,49184.71000,-69.996,-19.225,-235.243,53.182,-402.639,-280.581,-3.500,2.760,17.780
71,49184.88000,-67.059,-19.225,-235.243,51.268,-401.651,-283.502,-9.500,22.760,0.780
72,49184.111000,-65.101,-19.225,-236.232,52.203,-398.758,-282.537,-15.500,17.760,-10.220
73,49184.129000,-67.059,-17.202,-236.232,48.376,-402.589,-285.419,-24.500,-7.240,-27.220
74,49184.152000,-69.996,-16.190,-236.232,59.096,-401.722,-283.640,-26.500,0.760,-38.220
75,49184.184000,-67.059,-16.190,-236.232,50.333,-402.607,-285.453,-21.500,27.760,-38.220
76,49184.198000,-65.101,-15.178,-237.220,51.268,-399.715,-284.489,-16.500,34.760,-34.220
77,49184.210000,-65.101,-15.178,-240.185,50.326,-405.511,-283.481,-14.500,12.760,-27.220
78,49184.227000,-64.122,-15.178,-238.208,57.131,-402.672,-282.620,-7.500,-1.240,-18.220
79,49184.262000,-65.101,-15.178,-236.232,53.242,-399.732,-285.508,-2.500,-7.240,-13.220
80,49184.266000,-69.996,-15.178,-236.232,49.267,-396.796,-283.472,-317.500,17.760,-53.220
81,49184.289000,-2.447,-128.506,-175.938,41.270,-412.221,-265.593,-238.500,-880.240,215.780
82,49184.312000,-97.407,-81.960,-212.510,45.090,-419.037,-256.792,-609.500,-1606.240,-141.220
83,49184.329000,-198.241,-10.119,-249.081,49.880,-422.959,-248.997,-377.500,-871.240,-389.220
84,49184.347000,-168.872,14.166,-258.965,43.195,-421.919,-258.724,58.500,690.760,-123.220
85,49184.374000,-92.512,10.119,-250.069,46.239,-407.421,-272.577,261.500,1467.760,1.780
86,49184.401000,-8.321,-10.119,-232.278,47.442,-405.482,-286.383,31.500,924.760,20.780
87,49184.418000,-38.669,-11.130,-250.069,50.254,-397.772,-283.489,-129.500,183.760,-179.220
88,49184.450000,-67.059,-5.059,-263.907,48.384,-397.749,-288.378,-42.500,84.760,-121.220
89,49184.451000,-65.101,-8.095,-260.942,53.293,-395.857,-290.436,44.500,207.760,-74.220
90,49184.471000,-50.417,-10.119,-250.069,55.294,-396.840,-292.439,43.500,170.760,-72.220
91,49184.492000,-51.396,-5.059,-250.069,49.361,-393.887,-290.369,35.500,20.760,-50.220
92,49184.514000,-52.375,-8.095,-245.127,49.448,-395.818,-294.306,55.500,-40.240,-7.220
93,49184.532000,-59.228,-10.119,-238.208,54.254,-395.867,-289.468,54.500,-52.240,-11.220
94,49184.546000,-63.143,-10.119,-236.232,50.383,-394.861,-292.354,63.500,12.760,3.780
95,49184.575000,-59.228,-12.142,-238.208,53.371,-396.821,-294.374,71.500,49.760,15.780
96,49184.593000,-54.333,-13.154,-237.220,56.263,-393.946,-293.444,74.500,26.760,22.780
97,49184.621000,-52.375,-13.154,-234.255,56.316,-399.751,-293.438,64.500,-38.240,18.780
98,49184.638000,-54.333,-13.154,-236.232,53.232,-394.893,-287.482,54.500,-66.240,36.780
99,49184.661000,-58.249,-13.154,-238.208,58.222,-401.707,-289.532,55.500,-75.240,43.780
100,49184.678000,-65.101,-14.166,-239.197,57.225,-397.828,-290.503,64.500,-12.240,49.780
101,49184.696000,-63.143,-16.190,-237.220,57.242,-395.891,-292.475,-5.500,110.760,26.780
102,49184.723000,-16.153,-121.423,-182.857,48.341,-400.656,-284.436,-246.500,-735.240,333.780
103,49184.751000,-59.228,-45.534,-212.510,43.366,-414.166,-272.519,-231.500,-1079.240,-43.220
104,49184.766000,-155.166,-36.427,-245.127,49.176,-413.255,-269.669,-37.500,-119.240,-99.220
105,49184.788000,-135.587,-6.071,-247.104,48.300,-407.433,-278.520,124.500,784.760,29.780
106,49184.812000,-80.765,-15.178,-245.127,48.375,-396.782,-288.379,162.500,931.760,5.780
107,49184.826000,-31.816,-23.273,-237.220,51.380,-396.805,-292.370,73.500,729.760,-20.220
108,49184.848000,-32.795,6.071,-238.208,49.465,-393.881,-296.277,-82.500,155.760,-84.220
109,49184.863000,-54.333,-1.012,-247.104,48.444,-394.842,-293.305,-35.500,-125.240,-13.220
110,49184.888000,-69.996,-16.190,-250.069,53.407,-402.626,-293.383,-3.500,-93.240,-14.220
111,49184.916000,-62.164,-12.142,-247.104,58.212,-398.804,-290.519,6.500,-79.240,-19.220
112,49184.963000,-57.270,-8.095,-246.116,54.315,-394.896,-293.408,19.500,-113.240,5.780
113,49184.963000,-62.164,-9.107,-245.127,58.169,-397.838,-288.551,21.500,-106.240,-1.220
114,49184.966000,-70.975,-8.095,-241.174,49.406,-400.660,-289.377,33.500,-8.240,2.780
115,49184.987000,-72.933,-8.095,-238.208,53.294,-397.793,-289.449,53.500,103.760,15.780
116,49185.9000,-65.101,-11.130,-236.232,54.273,-399.738,-288.480,56.500,116.760,17.780
117,49185.32000,-57.270,-13.154,-233.266,50.314,-392.929,-289.402,51.500,69.760,14.780
118,49185.49000,-54.333,-14.166,-233.266,58.177,-396.870,-289.537,33.500,-24.240,1.780
119,49185.72000,-57.270,-14.166,-235.243,56.229,-397.820,-289.501,20.500,-86.240,1.780
120,49185.95000,-61.185,-16.190,-234.255,56.238,-398.787,-289.500,11.500,-91.240,0.780
121,49185.112000,-77.828,-212.490,-207.568,54.195,-402.646,-282.568,-194.500,-477.240,157.780
122,49185.128000,-30.837,-44.522,-213.498,53.037,-409.422,-268.757,-387.500,-836.240,137.780
123,49185.154000,-166.914,-35.415,-254.023,42.241,-415.134,-263.637,-217.500,-907.240,-159.220
124,49185.184000,-123.839,-2.024,-253.035,43.184,-413.209,-262.672,-4.500,292.760,-34.220
125,49185.198000,-86.639,1.012,-243.151,48.153,-408.409,-269.657,57.500,601.760,35.780
126,49185.217000,-62.164,0.000,-249.081,48.343,-408.399,-280.489,119.500,818.760,20.780
127,49185.238000,-53.354,-2.024,-246.116,51.397,-398.740,-292.368,133.500,665.760,68.780
128,49185.263000,-44.543,-7.083,-244.139,51.362,-394.870,-292.372,76.500,430.760,39.780
129,49185.281000,-49.438,-14.166,-244.139,47.482,-392.897,-295.259,72.500,175.760,20.780
130,49185.303000,-54.333,-12.142,-242.162,50.391,-391.957,-294.327,61.500,7.760,11.780
131,49185.321000,-57.270,-11.130,-238.208,50.400,-392.924,-294.326,60.500,-82.240,21.780
132,49185.343000,-63.143,-11.130,-235.243,46.496,-395.792,-293.269,53.500,-82.240,38.780
133,49185.361000,-66.080,-13.154,-233.266,49.415,-399.691,-290.363,42.500,-32.240,36.780
134,49185.381000,-64.122,-14.166,-232.278,49.423,-396.787,-292.335,40.500,-5.240,34.780
135,49185.408000,-62.164,-15.178,-231.290,50.349,-394.863,-290.385,35.500,38.760,21.780
136,49185.428000,-59.228,-15.178,-233.266,51.335,-391.968,-292.375,22.500,32.760,0.780
137,49185.443000,-56.291,-16.190,-236.232,54.375,-395.860,-296.362,11.500,-5.240,0.780
138,49185.466000,-57.270,-15.178,-236.232,52.384,-397.780,-293.371,1.500,-57.240,0.780
139,49185.491000,-62.164,-15.178,-239.197,44.504,-395.776,-291.265,0.500,-70.240,16.780
140,49185.523000,-65.101,-14.166,-242.162,51.362,-396.806,-291.385,14.500,-25.240,28.780
141,49185.546000,-63.143,-14.166,-246.116,47.405,-397.741,-288.361,30.500,22.760,28.780
142,49185.560000,107.197,243.858,-275.768,53.260,-399.731,-286.493,59.500,-643.240,332.780
143,49185.562000,-23.985,-8.095,-205.591,42.359,-405.448,-275.464,-44.500,-792.240,325.780
144,49185.590000,-116.987,-76.901,-240.185,48.181,-415.183,-267.680,-159.500,-1208.240,184.780
145,49185.606000,-136.566,-38.451,-249.081,45.237,-418.061,-265.656,-99.500,-282.240,-184.220
146,49185.628000,-107.197,-5.059,-248.093,45.271,-414.187,-269.599,-16.500,403.760,-121.220
147,49185.646000,-86.639,2.024,-246.116,40.472,-407.362,-278.382,82.500,680.760,-76.220
148,49185.667000,-63.143,-6.071,-239.197,53.244,-405.539,-282.548,75.500,639.760,1.780
149,49185.692000,-50.417,0.000,-238.208,49.380,-397.757,-289.380,32.500,442.760,-16.220
150,49185.716000,-47.480,-10.119,-242.162,51.284,-393.906,-288.434,44.500,138.760,-4.220
151,49185.729000,-53.354,-17.202,-240.185,45.509,-398.687,-291.279,34.500,19.760,-26.220
152,49185.767000,-56.291,-15.178,-239.197,48.367,-397.750,-287.393,23.500,-114.240,-27.220
153,49185.771000,-63.143,-13.154,-235.243,50.376,-401.637,-288.409,20.500,-166.240,-12.220
154,49185.789000,-69.017,-13.154,-234.255,46.367,-398.703,-284.403,15.500,-135.240,1.780
155,49185.812000,-71.954,-13.154,-234.255,56.256,-402.658,-288.511,18.500,-41.240,4.780
156,49185.835000,-69.996,-15.178,-232.278,49.355,-402.598,-285.436,17.500,62.760,-9.220
157,49185.869000,-63.143,-16.190,-234.255,52.264,-401.659,-284.504,15.500,88.760,-18.220
158,49185.909000,-57.270,-16.190,-237.220,54.317,-402.639,-289.462,6.500,33.760,-31.220
159,49185.909000,-56.291,-18.213,-234.255,51.268,-399.715,-284.489,-8.500,-54.240,-43.220
160,49185.918000,-63.143,-16.190,-236.232,56.134,-396.857,-284.578,-13.500,-76.240,-42.220
161,49185.938000,-68.038,-15.178,-238.208,56.169,-400.727,-284.574,-9.500,-59.240,-29.220
162,49185.958000,-65.101,-15.178,-241.174,46.419,-400.636,-286.371,5.500,-11.240,-17.220
163,49185.981000,4.405,-36.427,-319.259,45.304,-406.442,-275.515,628.500,-1106.240,466.780
164,49186.3000,-27.901,-19.225,-217.452,51.091,-418.115,-264.775,-222.500,-876.240,56.780
165,49186.16000,-116.008,-35.415,-238.208,45.186,-421.935,-260.728,-171.500,-642.240,-101.220
166,49186.39000,-144.398,-15.178,-253.035,48.120,-414.219,-264.727,45.500,258.760,-110.220
167,49186.59000,-105.239,-8.095,-243.151,50.084,-409.397,-267.721,96.500,685.760,-84.220
168,49186.82000,-76.849,-8.095,-239.197,54.171,-407.487,-278.624,129.500,655.760,-80.220
169,49186.99000,-51.396,0.000,-237.220,53.183,-404.575,-279.595,117.500,555.760,-55.220
170,49186.122000,-50.417,-1.012,-237.220,49.363,-401.630,-286.422,41.500,285.760,-46.220
171,49186.144000,-48.459,-12.142,-235.243,54.247,-400.707,-286.509,43.500,84.760,-14.220
172,49186.167000,-54.333,-18.213,-233.266,57.147,-398.800,-285.578,11.500,-46.240,-29.220
173,49186.186000,-61.185,-14.166,-232.278,50.307,-401.641,-284.469,2.500,-72.240,-13.220
174,49186.214000,-63.143,-17.202,-232.278,54.256,-403.610,-285.521,2.500,-42.240,5.780
175,49186.229000,-63.143,-16.190,-233.266,55.183,-403.622,-282.585,-3.500,-11.240,4.780
176,49186.253000,-64.122,-15.178,-231.290,46.350,-400.640,-282.432,-5.500,4.760,4.780
177,49186.274000,-66.080,-15.178,-234.255,57.156,-399.767,-285.577,-7.500,16.760,5.780
178,49186.292000,-63.143,-15.178,-235.243,57.157,-401.703,-284.591,-9.500,10.760,5.780
179,49186.301000,-62.164,-16.190,-233.266,56.186,-398.790,-286.546,-14.500,-14.240,2.780
180,49186.326000,-64.122,-15.178,-236.232,54.169,-401.679,-281.584,-21.500,-32.240,-3.220
181,49186.342000,-65.101,-14.166,-239.197,48.359,-402.590,-284.434,-19.500,-33.240,-1.220
182,49186.363000,-66.080,-15.178,-242.162,49.251,-402.604,-279.527,-10.500,-29.240,-3.220
183,49186.388000,-66.080,-14.166,-241.174,51.303,-401.649,-285.472,-3.500,-19.240,-9.220
184,49186.408000,-67.059,-15.178,-243.151,47.328,-400.649,-282.449,11.500,-15.240,-6.220
185,49186.431000,-64.122,-14.166,-246.116,54.239,-405.547,-283.550,27.500,-41.240,0.780
186,49186.451000,-82.723,-30.356,-216.463,57.096,-400.739,-281.637,44.500,-61.240,2.780
187,49186.498000,-124.818,-250.941,-203.614,44.361,-410.303,-275.494,-780.500,-805.240,235.780
188,49186.512000,-92.512,-54.640,-224.371,43.117,-420.956,-254.786,-689.500,-1073.240,82.780
189,49186.515000,-173.767,-15.178,-245.127,44.963,-427.755,-244.966,-195.500,-1073.240,-225.220
190,49186.527000,-158.103,0.000,-248.093,51.846,-425.880,-248.044,14.500,222.760,-153.220
191,49186.550000,-112.092,-1.012,-241.174,52.017,-414.255,-263.811,186.500,1140.760,-51.220
192,49186.579000,-52.375,-4.047,-238.208,47.279,-410.330,-274.561,248.500,1417.760,13.780
193,49186.599000,-2.447,-4.047,-229.313,51.328,-398.743,-288.429,9.500,785.760,44.780
194,49186.618000,-35.732,-9.107,-241.174,47.379,-396.774,-287.377,-12.500,31.760,-93.220
195,49186.635000,-59.228,-17.202,-247.104,52.247,-401.659,-283.519,-7.500,-152.240,-56.220
196,49186.657000,-64.122,-16.190,-243.151,51.268,-399.715,-284.489,19.500,-212.240,-32.220
197,49186.679000,-69.017,-15.178,-238.208,56.144,-401.696,-282.604,23.500,-221.240,-23.220
198,49186.699000,-72.933,-14.166,-237.220,53.156,-401.672,-279.598,26.500,-170.240,-0.220
199,49186.722000,-74.891,-14.166,-235.243,50.239,-403.580,-279.544,39.500,-57.240,21.780
200,49186.739000,-73.912,-13.154,-234.255,51.191,-404.559,-277.591,45.500,48.760,11.780
201,49186.767000,-67.059,-15.178,-232.278,51.216,-399.718,-281.534,50.500,124.760,3.780
202,49186.782000,-60.207,-17.202,-230.301,54.187,-401.678,-282.569,41.500,98.760,3.780
203,49186.799000,-56.291,-17.202,-231.290,57.167,-406.542,-282.616,19.500,-3.240,-2.220
204,49186.822000,-62.164,-18.213,-232.278,60.050,-404.636,-280.701,9.500,-57.240,-4.220
205,49186.845000,-69.996,-17.202,-232.278,60.084,-404.634,-282.670,-4.500,-98.240,-9.220
206,49186.863000,-70.975,-16.190,-232.278,60.023,-403.669,-279.717,0.500,-48.240,-5.220
207,49186.881000,-68.038,-18.213,-232.278,58.085,-407.522,-278.693,2.500,17.760,-2.220
208,49186.917000,-66.080,-17.202,-232.278,57.052,-399.773,-279.669,0.500,51.760,-1.220
209,49186.932000,-64.122,-16.190,-233.266,58.110,-404.617,-281.651,-4.500,41.760,1.780
210,49186.954000,-61.185,-16.190,-235.243,53.209,-405.541,-280.578,-9.500,-5.240,10.780
211,49186.967000,-65.101,-17.202,-235.243,51.269,-405.522,-281.529,-14.500,-54.240,12.780
212,49186.987000,-69.996,-15.178,-235.243,56.128,-407.504,-278.659,-11.500,-37.240,10.780
213,49187.9000,-69.996,-16.190,-237.220,59.089,-406.562,-280.681,-7.500,-15.240,12.780
214,49187.34000,-68.038,-16.190,-240.185,55.148,-403.624,-280.615,0.500,15.760,11.780
215,49187.49000,-68.038,-15.178,-240.185,54.179,-406.518,-279.610,0.500,15.760,2.780
216,49187.67000,-69.017,-16.190,-238.208,55.174,-404.590,-281.599,5.500,28.760,4.780
217,49187.94000,-67.059,-17.202,-237.220,52.247,-403.595,-282.533,13.500,32.760,16.780
218,49187.112000,-65.101,-17.202,-238.208,50.247,-404.548,-279.543,13.500,-8.240,16.780
219,49187.134000,-67.059,-15.178,-237.220,53.183,-404.575,-279.595,17.500,-51.240,13.780
220,49187.159000,-69.996,-15.178,-238.208,56.128,-407.504,-278.659,21.500,-51.240,14.780
221,49187.168000,-73.912,-16.190,-237.220,52.161,-403.600,-277.609,24.500,-7.240,10.780
222,49187.197000,-72.933,-17.202,-235.243,54.231,-406.515,-282.564,26.500,15.760,8.780
223,49187.237000,-69.017,-17.202,-237.220,57.088,-405.578,-278.678,25.500,19.760,0.780
224,49187.246000,-65.101,-16.190,-234.255,55.183,-405.558,-281.598,18.500,-5.240,-8.220
225,49187.259000,-69.017,-14.166,-235.243,53.148,-402.641,-278.612,9.500,-58.240,-20.220
226,49187.280000,-72.933,-17.202,-235.243,53.174,-403.607,-279.596,7.500,-71.240,-28.220
227,49187.297000,-72.933,-17.202,-235.243,56.109,-403.634,-279.648,14.500,-36.240,-35.220
228,49187.319000,-71.954,-16.190,-236.232,57.072,-407.515,-276.707,17.500,-10.240,-38.220
229,49187.337000,-69.996,-17.202,-235.243,60.033,-406.573,-278.729,17.500,-8.240,-34.220
230,49187.359000,-68.038,-18.213,-236.232,61.030,-410.452,-277.758,15.500,-28.240,-45.220
231,49187.382000,-68.038,-17.202,-238.208,55.071,-404.596,-275.690,17.500,-47.240,-48.220
232,49187.400000,-67.059,-19.225,-235.243,57.998,-405.591,-274.756,18.500,-79.240,-44.220
233,49187.421000,-68.038,-22.261,-235.243,60.899,-407.556,-271.852,21.500,-85.240,-28.220
234,49187.437000,-63.143,-25.296,-231.290,62.873,-405.637,-273.858,25.500,-80.240,-10.220
235,49187.462000,-58.249,-26.308,-229.313,64.892,-410.491,-274.873,17.500,-105.240,6.780
236,49187.500000,-55.312,-30.356,-227.336,55.980,-406.545,-270.782,0.500,-125.240,16.780
237,49187.528000,-55.312,-32.379,-223.382,56.968,-409.457,-269.811,-19.500,-95.240,19.780
238,49187.528000,-51.396,-34.403,-214.486,62.822,-411.447,-267.944,-49.500,-33.240,31.780
239,49187.546000,-46.501,-32.379,-205.591,61.834,-406.599,-269.901,-75.500,-18.240,46.780
240,49187.571000,-38.669,-28.332,-200.649,53.029,-410.391,-267.772,-121.500,-26.240,68.780
241,49187.593000,-33.774,-29.344,-193.730,52.163,-411.343,-273.662,-179.500,-76.240,135.780
242,49187.608000,-32.795,-27.320,-182.857,48.215,-413.245,-270.637,-254.500,-129.240,207.780
243,49187.631000,-33.774,-25.296,-177.915,39.296,-412.204,-264.573,-353.500,-196.240,296.780
244,49187.648000,-38.669,-22.261,-181.869,28.577,-416.943,-264.378,-449.500,-232.240,367.780
245,49187.668000,-41.606,-17.202,-185.822,28.551,-417.912,-262.408,-515.500,-235.240,422.780
246,49187.691000,-46.501,-11.130,-187.799,18.731,-415.889,-261.252,-599.500,-210.240,451.780
247,49187.713000,-51.396,-2.024,-204.602,5.985,-418.679,-258.070,-652.500,-180.240,470.780
248,49187.731000,-48.459,7.083,-214.486,-8.639,-422.414,-258.791,-664.500,-182.240,473.780
249,49187.758000,-52.375,13.154,-212.510,-14.562,-420.428,-256.720,-680.500,-195.240,498.780
250,49187.773000,-59.228,16.190,-211.521,-24.373,-421.308,-254.576,-715.500,-152.240,557.780
251,49187.793000,-54.333,19.225,-216.463,-44.013,-417.263,-252.264,-724.500,-100.240,614.780
252,49187.813000,-52.375,35.415,-220.417,-47.908,-423.033,-250.220,-758.500,-198.240,670.780
253,49187.831000,-55.312,45.534,-230.301,-65.652,-419.977,-244.003,-781.500,-246.240,724.780
254,49187.853000,-46.501,53.628,-227.336,-81.291,-417.898,-245.697,-759.500,-161.240,769.780
255,49187.871000,-39.648,63.747,-227.336,-97.137,-415.830,-235.575,-769.500,-176.240,809.780
256,49187.894000,-49.438,72.854,-237.220,-105.944,-415.750,-235.419,-779.500,-309.240,836.780
257,49187.917000,-54.333,80.949,-240.185,-120.708,-415.622,-230.236,-768.500,-334.240,866.780
258,49187.933000,-41.606,87.020,-231.290,-144.409,-410.581,-219.978,-720.500,-263.240,955.780
259,49187.957000,-33.774,100.174,-228.324,-154.228,-412.430,-216.849,-699.500,-260.240,1026.780
260,49187.993000,-44.543,110.292,-233.266,-172.076,-405.508,-206.696,-691.500,-459.240,1054.780
261,49188.12000,-57.270,118.387,-234.255,-184.866,-403.460,-203.519,-643.500,-595.240,1135.780
262,49188.21000,-53.354,125.470,-227.336,-198.851,-400.448,-188.508,-576.500,-513.240,1235.780
263,49188.38000,-43.564,135.589,-226.347,-210.637,-399.376,-186.332,-542.500,-508.240,1301.780
264,49188.61000,-40.627,145.708,-224.371,-229.550,-390.514,-172.226,-504.500,-661.240,1355.780
265,49188.83000,-56.291,150.767,-222.394,-249.416,-384.545,-158.099,-465.500,-828.240,1397.780
266,49188.120000,-72.933,153.802,-225.359,-260.344,-381.553,-150.033,-437.500,-862.240,1422.780
267,49188.122000,-71.954,160.885,-223.382,-287.103,-372.620,-134.804,-361.500,-739.240,1481.780
268,49188.143000,-66.080,166.957,-229.313,-296.042,-363.837,-131.702,-291.500,-633.240,1521.780
269,49188.152000,-71.954,171.004,-243.151,-313.007,-354.025,-117.631,-209.500,-703.240,1552.780
270,49188.179000,-88.597,176.063,-253.035,-319.010,-347.204,-113.595,-112.500,-758.240,1565.780
271,49188.202000,-88.597,185.170,-262.919,-334.858,-337.393,-107.420,10.500,-671.240,1558.780
272,49188.225000,-83.702,191.241,-264.896,-345.825,-320.852,-104.292,160.500,-683.240,1532.780
273,49188.247000,-88.597,199.336,-266.873,-359.769,-311.062,-95.196,325.500,-819.240,1527.780
274,49188.270000,-91.533,210.466,-269.838,-374.604,-303.195,-90.021,512.500,-888.240,1586.780
275,49188.284000,-97.407,219.573,-261.931,-375.654,-293.511,-90.998,606.500,-885.240,1622.780
276,49188.312000,-109.155,224.632,-256.988,-389.469,-278.874,-91.755,771.500,-854.240,1639.780
277,49188.327000,-117.966,223.621,-256.000,-389.531,-272.102,-91.762,948.500,-796.240,1640.780
278,49188.354000,-116.008,220.585,-255.012,-408.153,-255.481,-98.343,1117.500,-677.240,1628.780
279,49188.373000,-117.966,215.526,-252.046,-412.086,-247.703,-101.236,1255.500,-597.240,1594.780
280,49188.401000,-130.692,205.407,-249.081,-414.039,-227.359,-112.054,1345.500,-486.240,1443.780
281,49188.401000,-145.377,200.348,-254.023,-418.778,-219.562,-124.777,1452.500,-300.240,1275.780
282,49188.428000,-139.503,196.300,-256.000,-417.671,-212.789,-135.634,1556.500,-76.240,1114.780
283,49188.451000,-124.818,191.241,-247.104,-415.449,-204.080,-155.372,1612.500,-1.240,912.780
284,49188.471000,-122.860,177.075,-245.127,-410.384,-200.244,-167.280,1612.500,-7.240,796.780
285,49188.486000,-128.734,169.992,-255.012,-410.134,-195.390,-184.026,1641.500,-14.240,576.780
286,49188.500000,-132.650,160.885,-259.954,-400.168,-194.501,-195.032,1707.500,49.760,369.780
287,49188.532000,-137.545,150.767,-253.035,-393.969,-190.664,-215.820,1771.500,179.760,148.780
288,49188.546000,-132.650,141.660,-248.093,-376.841,-193.691,-242.700,1803.500,331.760,-39.220
289,49188.571000,-116.987,139.636,-250.069,-367.844,-195.696,-252.701,1856.500,409.760,-182.220
290,49188.593000,-105.239,129.518,-234.255,-350.811,-197.761,-274.658,1888.500,372.760,-334.220
291,49188.611000,-101.323,123.447,-228.324,-338.862,-197.856,-286.683,1895.500,351.760,-436.220
292,49188.633000,-100.344,111.304,-216.463,-319.890,-198.004,-308.676,1895.500,400.760,-492.220
293,49188.656000,-94.470,99.162,-208.556,-305.922,-201.017,-322.702,1890.500,535.760,-511.220
294,49188.673000,-83.702,83.984,-195.707,-278.257,-198.347,-339.930,1875.500,678.760,-536.220
295,49188.687000,-75.870,68.806,-181.869,-272.161,-196.452,-353.823,1845.500,728.760,-573.220
296,49188.729000,-67.059,58.688,-167.042,-250.262,-197.595,-374.882,1792.500,804.760,-595.220
297,49188.747000,-56.291,44.522,-157.158,-221.611,-190.094,-395.087,1722.500,849.760,-613.220
298,49188.761000,-45.522,25.296,-149.251,-208.797,-183.429,-404.182,1650.500,814.760,-640.220
299,49188.778000,-40.627,9.107,-143.320,-184.128,-181.704,-417.418,1553.500,665.760,-704.220
300,49188.795000,-37.690,-1.012,-139.367,-165.450,-179.932,-423.657,1448.500,578.760,-736.220
301,49188.815000,-29.859,-20.237,-133.436,-137.907,-175.334,-434.979,1379.500,536.760,-814.220
302,49188.842000,-22.027,-34.403,-137.390,-134.972,-171.489,-437.004,1244.500,360.760,-875.220
303,49188.857000,-22.027,-48.569,-138.378,-111.350,-171.695,-445.298,1098.500,149.760,-974.220
304,49188.885000,-23.006,-54.640,-138.378,-92.637,-175.728,-450.546,972.500,120.760,-1076.220
305,49188.899000,-23.006,-61.723,-136.402,-77.943,-171.989,-453.764,831.500,245.760,-1185.220
306,49188.924000,-26.922,-63.747,-142.332,-61.240,-168.265,-459.971,742.500,349.760,-1272.220
307,49188.943000,-25.943,-66.783,-137.390,-51.535,-163.519,-458.179,667.500,532.760,-1326.220
308,49188.964000,-8.321,-63.747,-129.483,-32.885,-153.038,-467.381,583.500,748.760,-1400.220
309,49188.981000,11.258,-62.735,-128.494,-22.193,-147.332,-466.593,474.500,774.760,-1497.220
310,49189.7000,24.964,-69.818,-131.459,-12.412,-129.999,-475.646,415.500,724.760,-1550.220
311,49189.39000,30.837,-79.937,-126.517,0.244,-115.600,-479.825,268.500,722.760,-1672.220
312,49189.58000,48.459,-73.866,-123.552,8.019,-109.867,-479.969,135.500,767.760,-1831.220
313,49189.77000,60.207,-59.700,-116.633,18.675,-96.420,-481.158,37.500,707.760,-1928.220
314,49189.92000,69.996,-63.747,-111.691,14.723,-84.772,-485.039,-128.500,682.760,-1946.220
315,49189.111000,95.449,-70.830,-114.656,14.686,-75.095,-488.003,-329.500,569.760,-2026.220
316,49189.136000,109.155,-47.557,-125.529,21.482,-69.352,-488.130,-406.500,326.760,-2103.220
317,49189.157000,106.218,-35.415,-119.598,13.599,-57.669,-490.958,-507.500,339.760,-2048.220
318,49189.177000,133.629,-26.308,-131.459,8.592,-48.920,-488.911,-654.500,465.760,-2082.220
319,49189.199000,124.818,1.012,-135.413,4.711,-41.140,-494.758,-708.500,416.760,-2158.220
320,49189.217000,110.134,12.142,-136.402,-5.179,-35.249,-491.636,-746.500,315.760,-2242.220
321,49189.237000,140.482,14.166,-150.239,-15.018,-27.420,-492.456,-830.500,513.760,-2124.220
322,49189.258000,173.767,34.403,-160.124,-28.841,-15.688,-491.241,-905.500,730.760,-2133.220
323,49189.276000,154.187,62.735,-152.216,-31.786,-10.822,-493.163,-939.500,473.760,-2330.220
324,49189.298000,135.587,82.972,-157.158,-41.694,-2.997,-490.044,-986.500,351.760,-2380.220
325,49189.315000,151.250,87.020,-200.649,-52.467,-1.931,-489.854,-999.500,652.760,-2203.220
326,49189.337000,178.662,88.032,-215.475,-67.320,9.807,-485.667,-925.500,871.760,-2141.220
327,49189.360000,188.451,111.304,-209.544,-90.935,16.789,-481.320,-914.500,670.760,-2220.220
328,49189.382000,182.577,140.648,-225.359,-100.782,21.714,-480.167,-898.500,549.760,-2247.220
329,49189.401000,180.620,159.874,-236.232,-111.625,28.582,-478.999,-798.500,572.760,-2239.220
330,49189.423000,191.388,173.028,-239.197,-117.548,30.569,-476.927,-666.500,753.760,-2171.220
331,49189.442000,209.989,178.087,-247.104,-123.549,31.582,-469.931,-539.500,744.760,-2124.220
332,49189.459000,210.967,167.968,-258.965,-135.301,36.528,-471.698,-370.500,545.760,-2133.220
333,49189.482000,193.346,164.933,-255.012,-132.426,37.466,-468.797,-234.500,411.760,-2094.220
334,49189.514000,190.409,169.992,-254.023,-143.180,32.725,-466.632,-117.500,414.760,-1946.220
335,49189.530000,207.052,179.099,-270.826,-139.275,33.657,-466.702,16.500,363.760,-1816.220
336,49189.549000,211.946,189.217,-275.768,-139.161,28.824,-470.636,167.500,154.760,-1789.220
337,49189.568000,201.178,192.253,-284.664,-145.031,23.070,-467.572,242.500,41.760,-1785.220
338,49189.588000,198.241,190.229,-290.595,-137.106,18.164,-470.660,423.500,-8.240,-1708.220
339,49189.603000,212.925,193.265,-292.571,-131.210,19.080,-472.734,580.500,-12.240,-1638.220
340,49189.626000,225.652,200.348,-292.571,-122.262,7.393,-474.848,725.500,-242.240,-1571.220
341,49189.646000,212.925,202.372,-295.537,-108.369,-8.207,-478.029,864.500,-570.240,-1533.220
342,49189.668000,193.346,195.289,-300.479,-93.586,-16.077,-480.250,1038.500,-674.240,-1444.220
343,49189.686000,186.493,190.229,-295.537,-74.766,-27.849,-487.461,1211.500,-581.240,-1292.220
344,49189.708000,193.346,191.241,-288.618,-64.029,-28.916,-485.680,1363.500,-568.240,-1126.220
345,49189.731000,191.388,191.241,-286.641,-39.346,-45.580,-490.035,1483.500,-614.240,-954.220
346,49189.748000,191.388,177.075,-302.456,-17.810,-46.743,-490.415,1538.500,-724.240,-888.220
347,49189.776000,206.073,171.004,-334.085,12.657,-63.466,-489.950,1663.500,-947.240,-821.220
348,49189.803000,205.094,190.229,-319.259,24.445,-76.153,-486.206,1855.500,-1274.240,-826.220
349,49189.822000,166.914,197.312,-292.571,62.715,-95.852,-482.922,2014.500,-1492.240,-765.220
350,49189.836000,127.755,180.111,-276.757,102.882,-116.540,-475.733,2183.500,-1307.240,-573.220
351,49189.858000,107.197,159.874,-259.954,125.275,-119.655,-468.250,2292.500,-823.240,-334.220
352,49189.881000,104.260,149.755,-244.139,160.295,-125.794,-454.095,2343.500,-380.240,-97.220
353,49189.902000,112.092,137.613,-231.290,190.533,-125.107,-449.709,2378.500,-144.240,98.780
354,49189.917000,111.113,123.447,-213.498,223.551,-128.328,-434.538,2372.500,-97.240,229.780
355,49189.938000,107.197,103.209,-205.591,240.022,-131.392,-423.997,2319.500,-76.240,293.780
356,49189.962000,107.197,79.937,-206.579,278.885,-131.763,-408.933,2274.500,-99.240,390.780
357,49189.971000,108.176,60.711,-195.707,304.908,-139.769,-382.804,2241.500,-173.240,430.780
358,49189.993000,102.302,44.522,-170.008,318.487,-143.772,-374.179,2168.500,-229.240,467.780
359,49190.18000,85.660,25.296,-152.216,342.527,-148.858,-348.018,2062.500,-168.240,594.780
360,49190.39000,74.891,5.059,-138.378,358.047,-158.687,-335.483,1961.500,28.760,770.780
361,49190.62000,74.891,-17.202,-128.494,374.276,-165.636,-309.182,1826.500,168.760,978.780
362,49190.77000,74.891,-36.427,-123.552,378.192,-171.479,-306.291,1668.500,161.760,1142.780
363,49190.99000,72.933,-51.605,-118.610,389.661,-189.024,-281.862,1594.500,114.760,1211.780
364,49190.132000,64.122,-64.759,-107.737,395.380,-204.572,-265.210,1427.500,33.760,1309.780
365,49190.160000,52.375,-71.842,-101.807,398.189,-215.253,-252.449,1257.500,17.760,1431.780
366,49190.172000,43.564,-80.949,-99.830,400.108,-235.599,-239.661,1093.500,23.760,1529.780
367,49190.181000,37.690,-84.996,-99.830,394.222,-247.161,-232.652,926.500,-24.240,1601.780
368,49190.203000,28.880,-91.067,-93.900,379.533,-268.322,-220.554,752.500,-95.240,1647.780
369,49190.227000,16.153,-99.162,-88.958,374.722,-280.856,-218.485,573.500,-152.240,1717.780
370,49190.244000,5.384,-107.257,-92.911,360.075,-301.047,-209.343,412.500,-169.240,1797.780
371,49190.262000,1.468,-113.328,-96.865,354.225,-314.543,-203.317,244.500,-186.240,1875.780
372,49190.290000,-1.468,-109.281,-99.830,333.891,-339.509,-201.943,165.500,-225.240,1898.780
373,49190.305000,-9.300,-102.198,-99.830,311.495,-360.593,-196.600,18.500,-316.240,1893.780
374,49190.325000,-17.132,-94.103,-98.842,289.018,-369.097,-193.239,-130.500,-369.240,1893.780
375,49190.347000,-26.922,-84.996,-103.784,264.795,-391.123,-194.754,-274.500,-396.240,1885.780
376,49190.364000,-40.627,-84.996,-109.714,255.973,-400.723,-188.680,-405.500,-299.240,1886.780
377,49190.387000,-46.501,-80.949,-115.645,225.886,-415.920,-194.036,-534.500,-162.240,1877.780
378,49190.407000,-59.228,-75.889,-128.494,210.301,-421.581,-194.738,-636.500,-2.240,1852.780
379,49190.429000,-68.038,-70.830,-136.402,172.350,-430.901,-200.947,-725.500,195.760,1837.780
380,49190.452000,-61.185,-60.711,-140.355,141.324,-433.504,-215.162,-853.500,300.760,1791.780
381,49190.476000,-61.185,-37.439,-170.996,127.731,-439.181,-217.868,-920.500,245.760,1763.780
382,49190.493000,-66.080,-23.273,-170.996,87.709,-441.715,-221.095,-999.500,141.760,1718.780
383,49190.521000,-72.933,-8.095,-166.054,76.020,-445.477,-221.868,-1054.500,96.760,1663.780
384,49190.546000,-82.723,2.024,-195.707,38.975,-445.131,-229.089,-1178.500,113.760,1648.780
385,49190.565000,-76.849,7.083,-203.614,19.291,-438.184,-225.795,-1187.500,155.760,1664.780
386,49190.583000,-82.723,18.213,-189.776,-13.822,-437.872,-234.070,-1184.500,229.760,1612.780
387,49190.592000,-81.744,41.486,-203.614,-26.518,-430.980,-238.775,-1268.500,337.760,1539.780
388,49190.614000,-64.122,53.628,-219.429,-58.774,-428.749,-241.161,-1294.500,399.760,1505.780
389,49190.635000,-51.396,60.711,-227.336,-99.033,-418.713,-237.507,-1321.500,316.760,1483.780
390,49190.667000,-47.480,68.806,-235.243,-104.861,-419.625,-239.372,-1342.500,198.760,1452.780
391,49190.681000,-40.627,82.972,-243.151,-141.214,-410.593,-234.801,-1375.500,-43.240,1408.780
392,49190.694000,-39.648,103.209,-246.116,-159.971,-403.658,-228.571,-1363.500,-242.240,1368.780
393,49190.717000,-62.164,124.459,-276.757,-187.603,-402.454,-215.285,-1332.500,-422.240,1356.780
394,49190.734000,-71.954,130.530,-284.664,-201.528,-396.535,-205.201,-1178.500,-420.240,1438.780
395,49190.757000,-73.912,139.636,-271.815,-226.235,-386.647,-195.916,-1032.500,-179.240,1529.780
396,49190.779000,-61.185,158.862,-256.000,-249.048,-370.006,-186.671,-939.500,87.760,1588.780
397,49190.802000,-54.333,183.146,-281.699,-267.675,-364.031,-187.333,-856.500,52.760,1658.780
398,49190.822000,-49.438,175.051,-292.571,-290.487,-349.325,-177.102,-687.500,-26.240,1773.780
399,49190.845000,-50.417,178.087,-291.583,-305.288,-339.520,-174.883,-634.500,-159.240,1789.780
400,49190.868000,-64.122,195.289,-308.386,-322.264,-322.933,-163.773,-525.500,-334.240,1767.780
401,49190.886000,-87.618,203.383,-328.154,-332.189,-317.045,-158.682,-317.500,-437.240,1850.780
402,49190.908000,-108.176,205.407,-341.992,-351.001,-296.562,-156.404,-47.500,-319.240,1952.780
403,49190.926000,-105.239,209.455,-347.923,-367.831,-277.064,-155.145,256.500,-58.240,2001.780
404,49190.948000,-95.449,208.443,-344.958,-377.715,-262.462,-156.956,478.500,72.760,1973.780
405,49190.963000,-96.428,210.466,-336.062,-379.711,-245.024,-163.832,666.500,2.760,1904.780
406,49190.986000,-91.533,209.455,-328.154,-387.620,-232.374,-165.676,850.500,-141.240,1812.780
407,49191.33000,-91.533,205.407,-320.247,-394.499,-215.860,-172.465,932.500,-223.240,1662.780
408,49191.33000,-95.449,195.289,-315.305,-400.311,-210.963,-178.275,1073.500,-397.240,1565.780
409,49191.48000,-103.281,190.229,-315.305,-403.189,-200.286,-187.096,1209.500,-534.240,1377.780
410,49191.66000,-113.071,190.229,-314.317,-400.031,-190.621,-204.884,1363.500,-536.240,1198.780
411,49191.91000,-124.818,183.146,-299.490,-391.208,-186.829,-207.998,1531.500,-362.240,1025.780
412,49191.113000,-123.839,169.992,-287.629,-389.946,-180.047,-227.717,1667.500,-135.240,874.780
413,49191.129000,-117.966,162.909,-282.687,-380.032,-177.225,-236.756,1785.500,-9.240,718.780
414,49191.147000,-115.029,155.826,-269.838,-372.785,-173.393,-261.500,1872.500,54.760,556.780
415,49191.170000,-116.987,143.684,-258.965,-360.940,-171.558,-268.603,1912.500,213.760,424.780
416,49191.190000,-116.008,132.553,-254.023,-347.806,-163.907,-296.409,1933.500,294.760,361.780
417,49191.219000,-103.281,121.423,-243.151,-336.887,-165.932,-304.475,1971.500,357.760,233.780
418,49191.234000,-88.597,107.257,-227.336,-317.915,-164.144,-327.455,1975.500,252.760,112.780
419,49191.272000,-89.576,94.103,-220.417,-296.932,-172.049,-348.491,1921.500,53.760,-26.220
420,49191.300000,-91.533,80.949,-215.475,-289.054,-166.310,-354.544,1883.500,-46.240,-154.220
421,49191.300000,-83.702,69.818,-201.637,-261.230,-175.247,-374.715,1861.500,-88.240,-288.220
422,49191.308000,-71.954,57.676,-187.799,-242.551,-179.282,-377.994,1800.500,-234.240,-421.220
423,49191.336000,-69.017,41.486,-174.950,-226.608,-188.120,-390.079,1721.500,-431.240,-587.220
424,49191.353000,-72.933,21.249,-164.077,-209.877,-195.041,-392.336,1594.500,-519.240,-737.220
425,49191.375000,-78.807,5.059,-160.124,-183.257,-202.045,-400.674,1531.500,-504.240,-818.220
426,49191.395000,-79.786,-2.024,-150.239,-160.611,-209.985,-405.003,1418.500,-356.240,-955.220
427,49191.416000,-73.912,-17.202,-143.320,-151.639,-214.895,-412.047,1280.500,-152.240,-1044.220
428,49191.435000,-56.291,-29.344,-139.367,-126.032,-221.892,-418.399,1172.500,-32.240,-1131.220
429,49191.452000,-41.606,-39.462,-122.564,-110.306,-223.967,-421.628,1035.500,-40.240,-1204.220
430,49191.466000,-32.795,-49.581,-111.691,-91.636,-228.971,-423.922,843.500,-90.240,-1263.220
431,49191.498000,-28.880,-61.723,-106.749,-79.824,-231.009,-427.082,654.500,-169.240,-1337.220
432,49191.521000,-24.964,-72.854,-100.819,-60.314,-236.030,-421.514,445.500,-298.240,-1434.220
433,49191.541000,-28.880,-84.996,-99.830,-55.333,-241.877,-423.564,211.500,-382.240,-1502.220
434,49191.561000,-26.922,-94.103,-103.784,-41.661,-241.035,-422.823,106.500,-376.240,-1529.220
435,49191.588000,-11.258,-95.115,-100.819,-25.967,-252.790,-419.149,-105.500,-350.240,-1598.220
436,49191.603000,-2.447,-90.055,-103.784,-22.114,-251.862,-416.265,-338.500,-401.240,-1679.220
437,49191.620000,-2.447,-86.008,-113.668,-7.444,-256.835,-413.565,-546.500,-399.240,-1754.220
438,49191.641000,-19.090,-75.889,-114.656,-14.267,-259.675,-413.441,-743.500,-277.240,-1860.220
439,49191.655000,-24.964,-65.771,-113.668,-10.310,-258.740,-416.466,-917.500,11.760,-1839.220
440,49191.682000,4.405,-66.783,-118.610,-7.324,-254.892,-421.445,-1102.500,141.760,-1872.220
441,49191.714000,29.859,-53.628,-137.390,-6.432,-254.906,-416.539,-1245.500,-18.240,-2016.220
442,49191.733000,26.922,-27.320,-151.228,-4.433,-248.146,-422.489,-1351.500,3.760,-2063.220
443,49191.747000,11.258,-13.154,-159.135,-9.256,-250.034,-425.354,-1405.500,145.760,-2006.220
444,49191.770000,20.069,-16.190,-171.985,-11.277,-237.437,-428.287,-1508.500,468.760,-1901.220
445,49191.798000,36.711,-6.071,-192.741,-20.076,-230.581,-432.077,-1548.500,485.760,-2020.220
446,49191.813000,42.585,39.462,-183.846,-30.824,-224.675,-435.832,-1524.500,421.760,-2102.220
447,49191.836000,38.669,47.557,-201.637,-29.915,-222.752,-432.896,-1565.500,546.760,-2060.220
448,49191.851000,69.017,57.676,-231.290,-37.720,-210.096,-440.649,-1600.500,773.760,-1976.220
449,49191.873000,82.723,74.877,-229.313,-54.332,-197.361,-448.245,-1578.500,700.760,-2019.220
450,49191.898000,70.975,103.209,-223.382,-58.349,-197.331,-442.268,-1610.500,458.760,-2070.220
451,49191.921000,60.207,123.447,-254.023,-68.118,-191.434,-446.040,-1628.500,421.760,-1997.220
452,49191.933000,68.038,133.565,-293.560,-79.896,-187.458,-445.836,-1600.500,489.760,-1950.220
453,49191.962000,70.975,144.696,-298.502,-90.739,-178.653,-445.654,-1458.500,556.760,-1944.220
454,49191.983000,63.143,160.885,-306.409,-88.808,-179.640,-443.718,-1333.500,439.760,-1980.220
455,49192.0,57.270,169.992,-319.259,-101.529,-177.589,-444.480,-1186.500,410.760,-1925.220
456,49192.21000,61.185,177.075,-321.236,-102.525,-175.645,-444.465,-998.500,514.760,-1875.220
457,49192.48000,62.164,190.229,-312.340,-100.578,-172.760,-445.487,-803.500,520.760,-1896.220
458,49192.61000,60.207,193.265,-300.479,-105.524,-166.911,-445.406,-590.500,512.760,-1875.220
459,49192.78000,60.207,175.051,-302.456,-105.490,-163.037,-449.349,-419.500,627.760,-1798.220
460,49192.101000,74.891,165.945,-319.259,-100.643,-156.309,-450.428,-364.500,697.760,-1795.220
461,49192.125000,92.512,184.158,-323.212,-93.759,-154.434,-453.505,-234.500,712.760,-1858.220
462,49192.147000,91.533,192.253,-326.178,-83.976,-148.715,-456.638,-67.500,507.760,-1983.220
463,49192.165000,97.407,187.194,-336.062,-84.919,-148.704,-458.590,106.500,449.760,-2003.220
464,49192.190000,108.176,182.134,-341.004,-67.247,-145.958,-463.828,297.500,477.760,-2015.220
465,49192.203000,125.797,182.134,-344.958,-47.669,-143.231,-466.147,482.500,430.760,-1970.220
466,49192.226000,139.503,180.111,-337.050,-38.820,-142.341,-469.258,693.500,314.760,-1856.220
467,49192.241000,152.229,180.111,-333.097,-7.483,-139.721,-472.769,867.500,188.760,-1683.220
468,49192.264000,159.082,179.099,-332.108,-6.513,-138.762,-472.787,1039.500,89.760,-1457.220
469,49192.282000,164.956,172.016,-335.073,21.846,-139.021,-472.304,1131.500,40.760,-1346.220
470,49192.308000,169.851,155.826,-332.108,36.479,-136.253,-471.582,1325.500,-65.240,-1146.220
471,49192.333000,170.830,143.684,-319.259,67.740,-140.413,-467.208,1490.500,-185.240,-974.220
472,49192.352000,157.124,140.648,-301.467,104.896,-137.848,-467.868,1619.500,-243.240,-792.220
473,49192.385000,140.482,132.553,-293.560,120.483,-137.995,-464.206,1750.500,-163.240,-570.220
474,49192.391000,137.545,118.387,-278.734,152.609,-139.265,-454.928,1892.500,11.760,-334.220
475,49192.413000,139.503,102.198,-262.919,170.144,-138.462,-451.302,1970.500,90.760,-123.220
476,49192.428000,135.587,91.067,-249.081,202.157,-136.835,-437.103,2013.500,63.760,62.780
477,49192.448000,126.776,79.937,-229.313,215.725,-132.128,-432.426,2021.500,52.760,222.780
478,49192.473000,115.029,65.771,-216.463,250.822,-137.295,-423.197,2011.500,63.760,302.780
479,49192.491000,110.134,46.545,-207.568,28.385,-138.197,-399.571,1986.500,81.760,461.780
480,49192.513000,105.239,24.285,-188.788,283.599,-144.400,-392.266,1947.500,105.760,609.780
481,49192.538000,101.323,8.095,-171.985,309.847,-152.394,-378.938,1862.500,100.760,725.780
482,49192.554000,96.428,-4.047,-163.089,318.394,-150.553,-365.309,1753.500,106.760,831.780
483,49192.572000,90.554,-16.190,-158.147,339.768,-162.372,-350.907,1652.500,106.760,942.780
484,49192.592000,84.681,-30.356,-144.309,346.437,-167.284,-338.221,1546.500,160.760,1060.780
485,49192.612000,79.786,-42.498,-138.378,362.927,-178.090,-324.718,1409.500,188.760,1161.780
486,49192.648000,74.891,-52.617,-130.471,357.932,-183.859,-315.763,1269.500,178.760,1253.780
487,49192.667000,65.101,-61.723,-129.483,360.767,-197.442,-302.999,1201.500,173.760,1300.780
488,49192.681000,57.270,-70.830,-131.459,365.655,-213.941,-294.206,1073.500,192.760,1397.780
489,49192.698000,53.354,-81.960,-123.552,369.476,-220.757,-285.406,935.500,196.760,1479.780
490,49192.721000,51.396,-90.055,-117.622,361.670,-240.043,-276.385,772.500,103.760,1545.780
491,49192.737000,38.669,-96.126,-118.610,354.840,-249.658,-272.315,608.500,-15.240,1593.780
492,49192.758000,23.985,-98.150,-125.529,356.933,-271.930,-268.388,479.500,-53.240,1630.780
493,49192.778000,12.237,-105.233,-123.552,340.231,-277.590,-261.195,349.500,-26.240,1652.780
494,49192.792000,8.321,-107.257,-119.598,323.818,-299.688,-261.863,196.500,-17.240,1662.780
495,49192.815000,5.384,-105.233,-125.529,306.218,-314.046,-254.644,74.500,-29.240,1678.780
496,49192.837000,-4.405,-103.209,-120.587,298.548,-325.581,-257.448,14.500,-19.240,1677.780
497,49192.862000,-14.195,-98.150,-112.680,280.098,-337.019,-259.077,-125.500,24.760,1676.780
498,49192.887000,-11.258,-99.162,-110.703,265.545,-346.557,-260.777,-299.500,44.760,1698.780
499,49192.902000,-6.363,-96.126,-114.656,236.428,-362.732,-265.166,-483.500,-44.240,1683.780
500,49192.922000,-16.153,-87.020,-124.541,226.713,-366.510,-266.958,-623.500,-144.240,1652.780
501,49192.947000,-23.985,-82.972,-123.552,196.504,-377.842,-267.395,-765.500,-83.240,1638.780
502,49192.967000,-9.300,-67.794,-105.761,182.036,-385.440,-275.006,-963.500,-30.240,1578.780
503,49192.990000,-1.468,-52.617,-102.795,148.794,-389.976,-273.428,-1212.500,-277.240,1528.780
504,49193.4000,-8.321,-38.451,-129.483,114.653,-399.337,-273.797,-1324.500,-383.240,1552.780
505,49193.26000,-30.837,-34.403,-133.436,95.198,-405.928,-276.399,-1364.500,-312.240,1564.780
506,49193.45000,-41.606,-22.261,-128.494,57.141,-407.511,-280.646,-1470.500,-10.240,1623.780
507,49193.72000,-30.837,-4.047,-137.390,42.524,-408.342,-283.339,-1594.500,143.760,1656.780
508,49193.100000,-24.964,11.130,-162.100,2.379,-403.140,-283.620,-1686.500,25.760,1669.780
509,49193.118000,-21.048,26.308,-176.927,-23.062,-402.908,-283.170,-1768.500,-145.240,1603.780
510,49193.132000,-21.048,47.557,-184.834,-64.279,-404.477,-274.563,-1854.500,-357.240,1507.780
511,49193.152000,-50.417,93.091,-213.498,-98.786,-402.245,-260.173,-1870.500,-594.240,1462.780
512,49193.169000,-56.291,108.269,-228.324,-121.422,-399.144,-253.869,-1860.500,-657.240,1461.780
513,49193.194000,-57.270,128.506,-234.255,-152.906,-400.804,-242.481,-1820.500,-621.240,1429.780
514,49193.214000,-61.185,151.779,-237.220,-169.750,-394.858,-233.330,-1802.500,-523.240,1430.780
515,49193.228000,-63.143,181.123,-266.873,-198.456,-390.746,-216.091,-1764.500,-427.240,1451.780
516,49193.253000,-55.312,192.253,-281.699,-218.227,-379.933,-209.848,-1642.500,-401.240,1467.780
517,49193.270000,-48.459,201.360,-288.618,-249.939,-371.928,-190.591,-1516.500,-393.240,1472.780
518,49193.291000,-51.396,215.526,-304.432,-269.813,-366.927,-175.479,-1371.500,-505.240,1481.780
519,49193.308000,-64.122,223.621,-314.317,-286.709,-359.047,-164.360,-1150.500,-580.240,1525.780
520,49193.331000,-66.080,229.692,-316.293,-311.495,-344.325,-153.110,-896.500,-495.240,1642.780
521,49193.348000,-57.270,234.751,-321.236,-319.619,-336.527,-140.177,-635.500,-489.240,1777.780
522,49193.371000,-63.143,242.846,-327.166,-338.508,-322.824,-130.015,-510.500,-552.240,1873.780
523,49193.393000,-88.597,250.941,-340.015,-352.461,-310.131,-121.907,-246.500,-801.240,1921.780
524,49193.411000,-108.176,253.976,-346.934,-375.239,-293.487,-114.632,72.500,-872.240,2034.780
525,49193.425000,-118.945,257.012,-346.934,-378.439,-270.246,-111.649,407.500,-772.240,2054.780
526,49193.457000,-125.797,251.953,-339.027,-391.161,-264.323,-114.385,744.500,-702.240,2071.780
527,49193.475000,-132.650,246.893,-332.108,-402.078,-240.036,-118.158,1015.500,-694.240,1956.780
528,49193.502000,-139.503,239.810,-332.108,-406.937,-236.118,-122.014,1245.500,-676.240,1798.780
529,49193.547000,-155.166,234.751,-322.224,-414.639,-221.521,-136.662,1463.500,-552.240,1588.780
530,49193.561000,-160.061,228.680,-310.363,-412.649,-213.794,-142.613,1669.500,-283.240,1401.780
531,49193.565000,-152.229,219.573,-291.583,-414.324,-201.177,-165.240,1762.500,-109.240,1323.780
532,49193.582000,-140.482,205.407,-278.734,-409.338,-192.505,-175.183,1899.500,207.760,1176.780
533,49193.605000,-122.860,193.265,-265.884,-400.154,-180.949,-202.924,1976.500,349.760,1000.780
534,49193.633000,-108.176,183.146,-257.977,-390.043,-173.277,-225.754,2024.500,350.760,821.780
535,49193.648000,-101.323,173.028,-247.104,-388.841,-167.466,-241.534,2039.500,249.760,615.780
536,49193.666000,-99.365,159.874,-243.151,-371.834,-168.564,-262.507,2026.500,128.760,446.780
537,49193.683000,-97.407,146.719,-238.208,-360.845,-170.585,-274.512,2018.500,43.760,250.780
538,49193.711000,-101.323,130.530,-228.324,-341.978,-164.931,-293.557,2006.500,26.760,64.780
539,49193.728000,-104.260,114.340,-223.382,-339.692,-168.802,-310.329,1981.500,116.760,-67.220
540,49193.748000,-95.449,101.186,-219.429,-311.948,-169.031,-330.509,1975.500,186.760,-125.220
541,49193.766000,-85.660,87.020,-203.614,-285.226,-170.222,-347.716,1963.500,290.760,-260.220
542,49193.793000,-73.912,69.818,-192.741,-277.207,-172.219,-357.700,1904.500,284.760,-349.220
543,49193.816000,-64.122,57.676,-187.799,-258.313,-171.403,-375.755,1837.500,212.760,-439.220
544,49193.836000,-67.059,45.534,-183.846,-241.443,-178.316,-385.890,1795.500,115.760,-567.220
545,49193.853000,-70.975,27.320,-171.985,-215.803,-181.440,-396.185,1743.500,158.760,-661.220
546,49193.873000,-69.996,12.142,-161.112,-204.893,-180.561,-405.239,1645.500,305.760,-760.220
547,49193.891000,-55.312,1.012,-157.158,-171.443,-176.014,-418.634,1535.500,382.760,-834.220
548,49193.913000,-43.564,-6.071,-146.286,-158.506,-180.957,-428.701,1438.500,362.760,-930.220
549,49193.936000,-32.795,-23.273,-128.494,-134.036,-176.340,-432.093,1358.500,325.760,-962.220
550,49193.955000,-20.069,-41.486,-114.656,-115.193,-179.398,-445.221,1129.500,200.760,-1021.220
551,49193.987000,-3.426,-49.581,-114.656,-106.438,-181.417,-441.436,876.500,-91.240,-1084.220
552,49193.996000,3.426,-55.652,-115.645,-86.726,-195.138,-442.753,705.500,-533.240,-1158.220
553,49194.23000,-15.174,-68.806,-113.668,-74.957,-202.018,-440.984,530.500,-904.240,-1237.220
554,49194.38000,-36.711,-71.842,-105.761,-69.056,-216.588,-435.165,351.500,-926.240,-1351.220
555,49194.55000,-48.459,-66.783,-101.807,-54.342,-224.463,-433.447,168.500,-656.240,-1438.220
556,49194.76000,-43.564,-64.759,-106.749,-41.655,-228.452,-429.729,16.500,-309.240,-1489.220
557,49194.90000,-26.922,-74.877,-113.668,-29.818,-229.522,-434.859,-167.500,-157.240,-1599.220
558,49194.108000,-16.153,-82.972,-123.552,-26.865,-231.483,-434.909,-261.500,-134.240,-1674.220
559,49194.131000,-4.405,-71.842,-125.529,-22.968,-229.584,-434.980,-430.500,-65.240,-1830.220
560,49194.158000,-2.447,-53.628,-124.541,-16.111,-228.678,-436.087,-565.500,43.760,-1974.220
561,49194.188000,-5.384,-33.391,-121.575,-13.229,-222.900,-436.145,-680.500,245.760,-2043.220
562,49194.198000,14.195,-32.379,-118.610,-5.341,-220.064,-441.210,-817.500,418.760,-2060.220
563,49194.216000,55.312,-55.652,-133.436,-6.277,-217.149,-445.135,-1040.500,175.760,-2209.220
564,49194.243000,80.765,-43.510,-153.205,-4.432,-218.141,-438.275,-1228.500,-370.240,-2478.220
565,49194.268000,60.207,-10.119,-149.251,-11.246,-220.013,-439.137,-1431.500,-622.240,-2531.220
566,49194.287000,26.922,13.154,-174.950,-13.185,-223.865,-438.113,-1481.500,-206.240,-2350.220
567,49194.320000,22.027,20.237,-199.660,-13.168,-221.929,-440.085,-1458.500,108.760,-2262.220
568,49194.323000,43.564,27.320,-192.741,-23.926,-211.184,-445.814,-1431.500,562.760,-2154.220
569,49194.346000,67.059,42.498,-172.973,-29.833,-203.389,-447.687,-1448.500,704.760,-2114.220
570,49194.363000,77.828,61.723,-162.100,-39.612,-192.653,-453.434,-1533.500,696.760,-2021.220
571,49194.386000,87.618,86.008,-181.869,-44.620,-181.968,-452.373,-1605.500,605.760,-1940.220
572,49194.402000,87.618,107.257,-210.533,-59.307,-178.931,-453.101,-1614.500,526.760,-1905.220
573,49194.420000,81.744,122.435,-204.602,-76.990,-172.968,-451.811,-1638.500,527.760,-1888.220
574,49194.436000,63.143,135.589,-202.625,-76.957,-169.094,-455.754,-1626.500,731.760,-1781.220
575,49194.467000,98.386,161.897,-262.919,-96.712,-152.472,-453.455,-1549.500,859.760,-1746.220
576,49194.487000,99.365,183.146,-282.687,-108.455,-150.430,-454.234,-1522.500,779.760,-1801.220
577,49194.507000,80.765,193.265,-309.375,-121.279,-148.384,-449.087,-1429.500,416.760,-1921.220
578,49194.522000,79.786,204.395,-336.062,-122.198,-145.468,-453.997,-1276.500,305.760,-1907.220
579,49194.548000,84.681,218.561,-350.888,-131.116,-148.298,-445.960,-1065.500,337.760,-1924.220
580,49194.563000,75.870,227.668,-353.853,-134.968,-153.098,-446.871,-853.500,257.760,-1982.220
581,49194.583000,66.080,224.632,-368.680,-131.105,-157.009,-442.012,-615.500,248.760,-1962.220
582,49194.611000,73.912,221.597,-374.610,-124.274,-155.136,-442.135,-341.500,460.760,-1925.220
583,49194.633000,89.576,226.656,-376.587,-130.110,-153.145,-444.988,-80.500,514.760,-1935.220
584,49194.651000,101.323,228.680,-373.622,-117.330,-152.289,-449.153,44.500,440.760,-1934.220
585,49194.668000,99.365,227.668,-372.633,-105.518,-156.264,-451.326,291.500,249.760,-1946.220
586,49194.691000,92.512,231.715,-373.622,-83.913,-155.487,-456.631,528.500,203.760,-1978.220
587,49194.708000,103.281,231.715,-367.691,-60.377,-157.634,-459.014,803.500,330.760,-1936.220
588,49194.731000,128.734,218.561,-354.842,-51.562,-156.745,-460.155,1096.500,447.760,-1809.220
589,49194.760000,148.314,209.455,-342.981,-13.290,-152.246,-469.698,1342.500,420.760,-1684.220
590,49194.780000,158.103,203.383,-332.108,-3.584,-145.565,-468.893,1547.500,328.760,-1531.220
591,49194.797000,165.935,193.265,-315.305,28.713,-139.082,-473.410,1745.500,278.760,-1316.220
592,49194.818000,173.767,173.028,-294.548,56.032,-136.432,-470.943,1915.500,220.760,-1081.220
593,49194.842000,175.725,156.838,-278.734,92.158,-133.862,-468.632,1968.500,171.760,-962.220
594,49194.862000,169.851,144.696,-260.942,130.170,-129.378,-463.403,2041.500,95.760,-715.220
595,49194.885000,158.103,129.518,-245.127,144.752,-126.613,-459.726,2087.500,107.760,-459.220
596,49194.902000,158.103,116.364,-229.313,178.773,-121.130,-450.490,2131.500,192.760,-173.220
597,49194.925000,162.019,98.150,-215.475,209.002,-121.411,-445.118,2146.500,220.760,86.780
598,49194.945000,160.061,78.925,-200.649,231.212,-117.761,-430.748,2108.500,129.760,319.780
599,49194.962000,146.356,65.771,-188.788,248.722,-121.799,-423.178,2041.500,10.760,520.780
600,49194.984000,132.650,51.605,-180.880,279.741,-127.907,-404.030,1978.500,-51.240,693.780
601,49195.18000,114.050,36.427,-168.031,289.363,-132.845,-392.381,1897.500,-12.240,866.780
602,49195.37000,102.302,21.249,-162.100,322.488,-143.803,-379.172,1846.500,16.760,957.780
603,49195.56000,96.428,3.036,-163.089,330.941,-150.678,-355.687,1745.500,58.760,1140.780
604,49195.65000,93.491,-16.190,-159.135,343.647,-160.473,-349.993,1639.500,33.760,1293.780
605,49195.78000,84.681,-29.344,-161.112,352.241,-177.020,-329.453,1518.500,-58.240,1399.780
606,49195.106000,72.933,-40.474,-161.112,358.089,-189.657,-321.666,1419.500,-159.240,1472.780
607,49195.123000,65.101,-48.569,-149.251,355.946,-207.072,-301.918,1345.500,-157.240,1530.780
608,49195.157000,58.249,-55.652,-131.459,358.919,-218.712,-298.019,1230.500,-164.240,1602.780
609,49195.171000,50.417,-62.735,-116.633,354.794,-237.078,-276.267,1076.500,-222.240,1683.780
610,49195.191000,38.669,-68.806,-105.761,350.878,-263.176,-262.385,912.500,-272.240,1780.780
611,49195.208000,23.985,-76.901,-102.795,346.985,-276.690,-256.393,832.500,-280.240,1837.780
612,49195.230000,14.195,-83.984,-105.761,334.305,-299.802,-246.297,682.500,-270.240,1953.780
613,49195.247000,9.300,-88.032,-95.876,329.442,-316.210,-239.301,545.500,-261.240,2045.780
614,49195.270000,4.405,-83.984,-81.050,302.119,-335.315,-232.888,373.500,-267.240,2092.780
615,49195.290000,-11.258,-77.913,-77.097,292.371,-346.839,-228.765,196.500,-310.240,2128.780
616,49195.311000,-25.943,-78.925,-79.073,265.110,-370.780,-223.332,32.500,-286.240,2180.780
617,49195.332000,-31.816,-82.972,-77.097,236.911,-387.934,-223.798,-181.500,-233.240,2234.780
618,49195.355000,-29.859,-76.901,-84.015,212.521,-399.322,-221.384,-410.500,-280.240,2246.780
619,49195.377000,-40.627,-64.759,-100.819,178.416,-416.425,-219.776,-575.500,-397.240,2203.780
620,49195.396000,-59.228,-55.652,-105.761,158.856,-421.086,-217.455,-646.500,-415.240,2178.780
621,49195.412000,-66.080,-41.486,-102.795,121.867,-434.288,-220.723,-754.500,-280.240,2142.780
622,49195.430000,-71.954,-28.332,-100.819,104.298,-437.029,-221.394,-916.500,-120.240,2095.780
623,49195.467000,-87.618,-26.308,-141.344,66.234,-443.452,-222.682,-1024.500,-74.240,2061.780
624,49195.486000,-73.912,-22.261,-150.239,42.775,-438.397,-226.210,-1085.500,34.760,1974.780
625,49195.501000,-79.786,1.012,-140.355,4.701,-441.917,-228.486,-1181.500,167.760,1813.780
626,49195.526000,-102.302,27.320,-170.008,-25.537,-438.732,-234.846,-1194.500,381.760,1888.780
627,49195.551000,-113.071,23.273,-201.637,-46.045,-429.832,-241.385,-1203.500,759.760,1924.780
628,49195.562000,-80.765,13.154,-215.475,-85.092,-416.888,-252.522,-1308.500,935.760,1808.780
629,49195.586000,-39.648,27.320,-219.429,-108.605,-406.029,-256.057,-1403.500,970.760,1731.780
630,49195.608000,-28.880,60.711,-245.127,-140.022,-398.007,-253.542,-1497.500,571.760,1479.780
631,49195.626000,-28.880,75.889,-256.000,-156.720,-389.148,-254.241,-1537.500,209.760,1317.780
632,49195.648000,-24.964,83.984,-248.093,-183.270,-384.076,-248.855,-1613.500,167.760,1239.780
633,49195.668000,-12.237,115.352,-260.942,-215.883,-373.154,-235.493,-1645.500,3.760,1175.780
634,49195.682000,-0.489,143.684,-286.641,-223.868,-369.220,-228.465,-1499.500,-226.240,1247.780
635,49195.705000,3.426,148.743,-275.768,-250.601,-359.318,-215.206,-1423.500,-362.240,1305.780
636,49195.727000,2.447,162.909,-260.942,-264.517,-354.366,-205.121,-1345.500,-457.240,1391.780
637,49195.750000,-10.279,195.289,-296.525,-292.307,-341.556,-188.893,-1219.500,-530.240,1616.780
638,49195.758000,-25.943,199.336,-319.259,-304.224,-335.652,-181.798,-904.500,-492.240,1774.780
639,49195.786000,-27.901,218.561,-318.270,-330.059,-315.117,-169.551,-680.500,-399.240,1929.780
640,49195.823000,-44.543,231.715,-331.120,-339.286,-293.767,-156.615,-474.500,-404.240,2044.780
641,49195.837000,-51.396,235.763,-336.062,-357.948,-287.794,-155.307,-201.500,-496.240,2130.780
642,49195.852000,-57.270,241.834,-339.027,-375.912,-266.360,-146.155,49.500,-592.240,2155.780
643,49195.880000,-73.912,251.953,-342.981,-391.675,-256.544,-144.903,276.500,-683.240,2112.780
644,49195.895000,-96.428,258.024,-343.969,-400.720,-236.152,-141.813,537.500,-699.240,2059.780
645,49195.912000,-114.050,256.000,-341.004,-402.696,-228.392,-144.741,814.500,-609.240,1995.780
646,49195.937000,-120.902,248.917,-335.073,-409.567,-210.909,-152.515,951.500,-533.240,1941.780
647,49195.958000,-120.902,239.810,-325.189,-419.372,-199.206,-157.278,1211.500,-389.240,1817.780
648,49195.980000,-129.713,235.763,-317.282,-418.365,-177.919,-170.118,1450.500,-259.240,1724.780
649,49195.997000,-135.587,224.632,-304.432,-415.156,-164.380,-192.833,1674.500,-46.240,1623.780
650,49196.17000,-134.608,203.383,-288.618,-410.163,-152.804,-204.749,1852.500,236.760,1493.780
651,49196.37000,-117.966,192.253,-280.710,-410.894,-136.327,-227.397,1940.500,419.760,1341.780
652,49196.60000,-107.197,180.111,-266.873,-395.050,-128.715,-242.454,2000.500,427.760,1160.780
653,49196.77000,-102.302,163.921,-255.012,-386.966,-115.221,-264.270,2021.500,345.760,946.780
654,49196.100000,-97.407,147.731,-251.058,-378.005,-109.485,-276.249,2011.500,287.760,759.780
655,49196.125000,-91.533,131.542,-248.093,-360.931,-106.708,-303.135,2010.500,251.760,645.780
656,49196.143000,-81.744,114.340,-240.185,-346.817,-104.873,-327.998,1988.500,110.760,408.780
657,49196.162000,-77.828,95.115,-222.394,-330.070,-105.986,-334.200,1953.500,-24.240,167.780
658,49196.185000,-80.765,86.008,-217.452,-310.067,-110.011,-357.191,1884.500,-84.240,-62.220
659,49196.198000,-78.807,71.842,-205.591,-302.179,-107.175,-362.256,1865.500,-0.240,-232.220
660,49196.221000,-69.996,61.723,-195.707,-277.231,-113.178,-387.302,1818.500,132.760,-343.220
661,49196.246000,-62.164,49.581,-183.846,-267.420,-112.297,-389.446,1788.500,263.760,-449.220
662,49196.263000,-51.396,36.427,-177.915,-247.495,-113.423,-409.486,1727.500,354.760,-492.220
663,49196.272000,-36.711,20.237,-170.996,-223.752,-113.622,-424.672,1656.500,378.760,-537.220
664,49196.300000,-19.090,8.095,-164.077,-202.147,-112.845,-429.978,1610.500,324.760,-574.220
665,49196.317000,-12.237,1.012,-167.042,-178.421,-113.045,-444.180,1504.500,125.760,-665.220
666,49196.340000,-13.216,-3.036,-168.031,-172.549,-118.906,-441.323,1432.500,-104.240,-766.220
667,49196.360000,-21.048,-21.249,-155.181,-145.912,-125.909,-450.647,1378.500,-235.240,-858.220
668,49196.382000,-29.859,-44.522,-136.402,-133.139,-127.958,-452.839,1258.500,-179.240,-899.220
669,49196.398000,-33.774,-58.688,-126.517,-113.387,-131.029,-462.045,1129.500,-37.240,-921.220
670,49196.425000,-30.837,-66.783,-124.541,-98.753,-130.197,-460.336,1034.500,103.760,-957.220
671,49196.447000,-22.027,-68.806,-119.598,-79.070,-131.337,-466.590,918.500,184.760,-1038.220
672,49196.465000,-15.174,-75.889,-113.668,-57.562,-127.662,-467.959,783.500,192.760,-1186.220
673,49196.487000,-12.237,-79.937,-108.726,-49.673,-126.762,-472.037,700.500,174.760,-1270.220
674,49196.512000,-15.174,-81.960,-104.772,-42.807,-124.887,-474.130,544.500,161.760,-1439.220
675,49196.532000,-10.279,-81.960,-96.865,-27.144,-120.190,-477.366,404.500,285.760,-1537.220
676,49196.553000,3.426,-86.008,-96.865,-18.382,-113.497,-478.513,249.500,447.760,-1645.220
677,49196.573000,15.174,-82.972,-102.795,-18.410,-108.659,-479.503,81.500,421.760,-1827.220
678,49196.591000,22.027,-78.925,-110.703,-7.701,-97.145,-482.659,-60.500,310.760,-1994.220
679,49196.613000,27.901,-69.818,-103.784,0.030,-92.382,-479.848,-204.500,381.760,-2131.220
680,49196.642000,43.564,-57.676,-103.784,3.034,-86.598,-486.799,-351.500,490.760,-2261.220
681,49196.656000,52.375,-47.557,-112.680,-2.953,-72.032,-487.695,-418.500,506.760,-2433.220
682,49196.678000,62.164,-34.403,-123.552,1.877,-67.241,-486.802,-490.500,506.760,-2487.220
683,49196.693000,67.059,-23.273,-112.680,-3.114,-54.619,-487.712,-568.500,626.760,-2558.220
684,49196.711000,93.491,-5.059,-99.830,-4.103,-45.899,-491.643,-704.500,791.760,-2603.220
685,49196.725000,126.776,23.273,-124.541,-19.901,-32.214,-490.395,-822.500,628.760,-2712.220
686,49196.743000,130.692,40.474,-136.402,-23.851,-26.373,-491.316,-859.500,313.760,-2876.220
687,49196.772000,109.155,55.652,-106.749,-42.566,-16.532,-489.028,-1052.500,322.760,-2924.220
688,49196.800000,115.029,92.079,-124.541,-51.390,-14.517,-488.874,-1153.500,583.760,-2880.220
689,49196.820000,136.566,124.459,-165.066,-61.263,-8.626,-486.737,-1093.500,671.760,-2890.220
690,49196.838000,141.461,127.494,-165.066,-76.029,-0.754,-485.501,-1098.500,647.760,-2900.220
691,49196.862000,138.524,139.636,-159.135,-83.979,3.182,-480.443,-1181.500,711.760,-2944.220
692,49196.880000,162.998,182.134,-191.753,-108.616,11.137,-474.109,-1177.500,810.760,-3006.220
693,49196.900000,179.641,215.526,-220.417,-115.422,10.234,-475.957,-1070.500,621.760,-3113.220
694,49196.922000,172.788,229.692,-232.278,-134.099,8.463,-469.718,-979.500,427.760,-3114.220
695,49196.942000,172.788,236.775,-270.826,-149.876,8.598,-462.547,-842.500,539.760,-2990.220
696,49196.970000,177.683,253.976,-303.444,-156.647,3.825,-464.391,-616.500,663.760,-2876.220
697,49196.982000,185.514,280.285,-313.328,-159.600,5.787,-464.341,-343.500,690.760,-2708.220
698,49197.0,200.199,287.368,-326.178,-161.669,4.830,-457.412,-21.500,639.760,-2606.220
699,49197.25000,232.505,268.142,-364.726,-162.508,0.976,-463.299,140.500,567.760,-2643.220
700,49197.42000,252.084,274.213,-389.436,-148.765,-3.986,-463.537,450.500,334.760,-2780.220
701,49197.65000,256.000,284.332,-399.320,-139.801,-9.865,-469.595,837.500,218.760,-2810.220
702,49197.81000,260.895,285.344,-390.425,-116.195,-15.879,-473.944,1206.500,303.760,-2681.220
703,49197.103000,306.906,266.119,-350.888,-101.439,-16.976,-478.141,1509.500,375.760,-2412.220
704,49197.151000,319.633,264.095,-327.166,-78.830,-17.174,-484.448,1759.500,274.760,-2036.220
705,49197.160000,309.843,250.941,-302.456,-51.372,-16.452,-488.872,1996.500,110.760,-1585.220
706,49197.173000,288.306,228.680,-277.745,-16.173,-13.870,-489.498,2208.500,101.760,-1093.220
707,49197.188000,279.495,218.561,-255.012,3.449,-15.981,-491.812,2346.500,220.760,-576.220
708,49197.211000,278.516,207.431,-234.255,43.531,-10.541,-493.512,2401.500,260.760,-321.220
709,49197.227000,274.600,194.277,-214.486,64.035,-3.955,-494.867,2487.500,194.760,80.780
710,49197.248000,266.769,182.134,-193.730,107.947,-8.233,-486.778,2500.500,10.760,346.780
711,49197.267000,243.273,163.921,-181.869,146.862,-10.538,-473.682,2473.500,-193.240,540.780
712,49197.290000,220.757,143.684,-168.031,173.238,-11.748,-471.194,2452.500,-265.240,731.780
713,49197.308000,202.157,126.482,-152.216,217.992,-21.851,-452.285,2390.500,-218.240,962.780
714,49197.325000,189.430,111.304,-148.263,238.542,-27.845,-449.688,2302.500,-178.240,1232.780
715,49197.347000,170.830,93.091,-139.367,261.752,-41.625,-427.440,2204.500,-169.240,1475.780
716,49197.375000,149.293,77.913,-125.529,279.280,-49.533,-418.881,2076.500,-183.240,1673.780
717,49197.411000,127.755,57.676,-116.633,306.484,-68.183,-398.667,2008.500,-192.240,1758.780
718,49197.420000,98.386,36.427,-105.761,334.719,-90.711,-379.451,1867.500,-172.240,1904.780
719,49197.442000,78.807,15.178,-100.819,339.527,-100.439,-369.680,1711.500,-109.240,1995.780
720,49197.456000,69.017,-1.012,-96.865,351.180,-126.685,-351.151,1542.500,-56.240,2064.780
721,49197.476000,57.270,-21.249,-88.958,359.012,-140.306,-344.382,1354.500,-85.240,2089.780
722,49197.498000,42.585,-39.462,-79.073,354.109,-169.299,-328.510,1138.500,-196.240,2082.780
723,49197.518000,36.711,-55.652,-84.015,356.987,-179.976,-319.689,924.500,-297.240,2078.780
724,49197.541000,40.627,-72.854,-92.911,350.188,-207.980,-307.722,740.500,-433.240,2071.780
725,49197.561000,29.859,-76.901,-90.934,341.486,-243.707,-294.728,641.500,-553.240,1997.780
726,49197.585000,5.384,-76.901,-81.050,329.747,-257.151,-287.614,461.500,-782.240,1971.780
727,49197.607000,-5.384,-80.949,-81.050,319.061,-288.022,-275.575,322.500,-773.240,1971.780
728,49197.627000,-10.279,-86.008,-88.958,311.271,-301.499,-270.499,194.500,-653.240,2017.780
729,49197.645000,-23.006,-89.043,-85.992,284.936,-325.452,-262.130,69.500,-553.240,2002.780
730,49197.665000,-34.753,-88.032,-76.108,278.150,-336.033,-260.028,-80.500,-344.240,2006.780
731,49197.687000,-35.732,-86.008,-67.212,253.000,-356.111,-265.467,-302.500,-21.240,2004.780
732,49197.702000,-32.795,-81.960,-80.062,231.456,-357.852,-263.114,-546.500,96.760,1957.780
733,49197.711000,-30.837,-81.960,-90.934,199.473,-375.931,-270.403,-741.500,63.760,1922.780
734,49197.740000,-28.880,-82.972,-82.039,172.295,-388.253,-275.814,-852.500,39.760,1891.780
735,49197.792000,-21.048,-69.818,-62.270,160.604,-386.207,-279.548,-1131.500,40.760,1740.780
736,49197.794000,-34.753,-41.486,-100.819,121.631,-394.553,-283.771,-1430.500,-177.240,1582.780
737,49197.812000,-59.228,-39.462,-124.541,98.192,-399.176,-283.351,-1524.500,-369.240,1528.780
738,49197.830000,-61.185,-33.391,-109.714,68.960,-404.710,-286.765,-1633.500,-160.240,1488.780
739,49197.846000,-62.164,-10.119,-97.853,41.605,-401.555,-290.222,-1846.500,124.760,1365.780
740,49197.871000,-58.249,10.119,-130.471,-1.354,-402.126,-294.384,-2056.500,155.760,1351.780
741,49197.893000,-34.753,17.202,-171.985,-40.686,-394.038,-286.806,-2190.500,-15.240,1291.780
742,49197.917000,-16.153,40.474,-181.869,-54.271,-398.746,-290.498,-2308.500,-357.240,1062.780
743,49197.926000,-30.837,79.937,-201.637,-91.765,-396.490,-273.102,-2360.500,-538.240,997.780
744,49197.947000,-43.564,106.245,-231.290,-110.477,-398.263,-264.893,-2307.500,-693.240,1030.780
745,49197.973000,-48.459,126.482,-249.081,-149.003,-392.129,-246.498,-2192.500,-564.240,1084.780
746,49198.6000,-54.333,153.802,-267.861,-159.836,-390.100,-243.356,-2043.500,-229.240,1138.780
747,49198.25000,-58.249,181.123,-289.606,-198.243,-378.152,-234.815,-1864.500,321.760,1296.780
748,49198.38000,-25.943,202.372,-316.293,-224.823,-358.562,-235.352,-1626.500,892.760,1529.780
749,49198.55000,22.027,212.490,-340.015,-242.586,-345.828,-233.083,-1413.500,891.760,1670.780
750,49198.72000,64.122,216.538,-364.726,-272.144,-327.182,-230.613,-1228.500,372.760,1802.780
751,49198.95000,74.891,232.727,-384.494,-285.083,-320.304,-221.532,-992.500,-302.240,1892.780
752,49198.117000,49.438,254.988,-400.309,-316.805,-303.588,-206.224,-834.500,-564.240,1966.780
753,49198.133000,8.321,258.024,-410.193,-322.834,-295.800,-201.204,-428.500,-823.240,2172.780
754,49198.152000,-23.985,258.024,-404.263,-345.689,-280.129,-189.005,-34.500,-781.240,2289.780
755,49198.173000,-37.690,269.154,-401.297,-350.653,-270.409,-189.913,330.500,-698.240,2325.780
756,49198.197000,-53.354,272.190,-393.390,-371.440,-249.910,-186.616,683.500,-648.240,2313.780
757,49198.215000,-65.101,265.107,-384.494,-381.264,-232.401,-193.353,987.500,-590.240,2249.780
758,49198.236000,-79.786,257.012,-377.575,-380.271,-224.665,-198.302,1267.500,-477.240,2065.780
759,49198.258000,-94.470,242.846,-357.807,-383.195,-201.408,-211.076,1506.500,-316.240,1889.780
760,49198.282000,-99.365,229.692,-336.062,-384.027,-196.552,-221.896,1702.500,-189.240,1739.780
761,49198.303000,-94.470,216.538,-311.351,-377.935,-181.106,-242.695,1777.500,58.760,1673.780
762,49198.321000,-92.512,202.372,-290.595,-378.865,-169.480,-251.552,1879.500,260.760,1563.780
763,49198.347000,-84.681,189.217,-274.780,-363.854,-155.076,-278.415,1942.500,407.760,1480.780
764,49198.362000,-67.059,174.040,-259.954,-350.868,-142.594,-300.317,1964.500,409.760,1352.780
765,49198.391000,-54.333,159.874,-247.104,-344.914,-131.027,-311.265,1959.500,255.760,1146.780
766,49198.408000,-52.375,141.660,-234.255,-326.991,-125.363,-332.262,1921.500,82.760,965.780
767,49198.431000,-59.228,122.435,-224.371,-323.927,-122.478,-341.180,1869.500,-43.240,765.780
768,49198.454000,-69.017,89.043,-216.463,-300.114,-122.673,-360.306,1858.500,-88.240,570.780
769,49198.467000,-72.933,72.854,-207.568,-297.075,-120.758,-367.253,1832.500,-86.240,402.780
770,49198.492000,-69.017,63.747,-204.602,-275.333,-116.103,-382.410,1817.500,-25.240,334.780
771,49198.521000,-67.059,47.557,-196.695,-250.542,-118.242,-400.566,1785.500,58.760,203.780
772,49198.535000,-68.038,34.403,-188.788,-239.701,-117.368,-405.681,1732.500,124.760,37.780
773,49198.548000,-64.122,21.249,-181.869,-214.944,-119.509,-421.868,1664.500,185.760,-119.220
774,49198.571000,-46.501,8.095,-177.915,-207.047,-119.577,-425.945,1578.500,211.760,-229.220
775,49198.588000,-32.795,-2.024,-164.077,-185.383,-115.893,-436.178,1515.500,138.760,-388.220
776,49198.606000,-34.753,-6.071,-162.100,-168.653,-117.007,-441.395,1405.500,-60.240,-593.220
777,49198.627000,-44.543,-14.166,-156.170,-149.843,-123.939,-450.579,1347.500,-135.240,-744.220
778,49198.650000,-37.690,-30.356,-152.216,-130.230,-125.082,-452.894,1313.500,-86.240,-810.220
779,49198.672000,-20.069,-45.534,-150.239,-115.414,-127.144,-460.045,1219.500,67.760,-865.220
780,49198.695000,-17.132,-53.628,-149.251,-88.899,-130.282,-464.448,1115.500,16.760,-1028.220
781,49198.721000,-26.922,-60.711,-145.297,-81.979,-132.276,-467.522,1002.500,-95.240,-1175.220
782,49198.741000,-25.943,-56.664,-148.263,-63.388,-134.381,-466.864,869.500,28.760,-1221.220
783,49198.758000,-19.090,-58.688,-135.413,-52.547,-133.507,-471.979,804.500,262.760,-1259.220
784,49198.781000,-11.258,-67.794,-118.610,-33.906,-122.058,-481.182,719.500,368.760,-1339.220
785,49198.795000,5.384,-77.913,-105.761,-27.144,-118.254,-478.353,586.500,383.760,-1437.220
786,49198.815000,23.985,-73.866,-98.842,-15.421,-114.490,-479.549,408.500,293.760,-1587.220
787,49198.836000,33.774,-67.794,-90.934,-4.711,-108.784,-479.745,311.500,188.760,-1674.220
788,49198.858000,37.690,-68.806,-94.888,4.121,-107.894,-481.871,103.500,-22.240,-1802.220
789,49198.876000,39.648,-76.901,-108.726,7.056,-104.049,-483.897,-109.500,-153.240,-1888.220
790,49198.918000,43.564,-72.854,-113.668,11.950,-109.901,-481.023,-241.500,-141.240,-2010.220
791,49198.941000,51.396,-53.628,-102.795,14.850,-106.058,-481.079,-355.500,-20.240,-2140.220
792,49198.960000,67.059,-34.403,-108.726,12.909,-102.168,-484.002,-476.500,150.760,-2197.220
793,49198.962000,78.807,-30.356,-135.413,9.893,-91.499,-484.946,-574.500,216.760,-2271.220
794,49198.978000,86.639,-33.391,-142.332,4.964,-83.713,-486.837,-640.500,294.760,-2329.220
795,49199.1000,95.449,-17.202,-124.541,9.821,-79.888,-486.927,-751.500,457.760,-2339.220
796,49199.27000,121.881,2.024,-134.425,0.915,-61.423,-490.729,-805.500,557.760,-2331.220
797,49199.40000,135.587,22.261,-165.066,1.850,-62.403,-487.791,-892.500,524.760,-2360.220
798,49199.63000,127.755,27.320,-156.170,-10.952,-45.837,-491.522,-878.500,401.760,-2435.220
799,49199.83000,122.860,50.593,-144.309,-23.707,-47.659,-488.341,-975.500,558.760,-2346.220
800,49199.102000,145.377,80.949,-165.066,-38.502,-27.206,-492.041,-1062.500,818.760,-2262.220
801,49199.123000,166.914,103.209,-186.811,-46.506,-15.530,-487.975,-1016.500,692.760,-2312.220
802,49199.147000,169.851,105.233,-180.880,-59.244,-13.480,-487.752,-1037.500,480.760,-2296.220
803,49199.171000,163.977,117.375,-202.625,-72.077,-12.403,-481.619,-1067.500,509.760,-2181.220
804,49199.188000,185.514,131.542,-242.162,-78.884,-7.498,-486.427,-988.500,556.760,-2135.220
805,49199.202000,199.220,143.684,-257.977,-95.615,-2.513,-483.184,-923.500,458.760,-2157.220
806,49199.233000,187.472,155.826,-266.873,-103.477,-4.380,-480.089,-835.500,188.760,-2209.220
807,49199.256000,180.620,171.004,-296.525,-118.180,-5.216,-477.859,-712.500,190.760,-2147.220
808,49199.276000,191.388,179.099,-324.201,-125.046,-9.026,-474.780,-512.500,246.760,-2060.220
809,49199.291000,188.451,187.194,-333.097,-126.924,-15.779,-475.723,-267.500,113.760,-2038.220
810,49199.313000,168.872,192.253,-330.131,-122.074,-16.794,-472.854,-9.500,117.760,-1933.220
811,49199.335000,171.809,192.253,-331.120,-124.975,-16.765,-474.772,216.500,335.760,-1796.220
812,49199.350000,188.451,198.324,-337.050,-107.292,-20.793,-477.049,444.500,330.760,-1784.220
813,49199.363000,200.199,199.336,-341.004,-105.327,-19.842,-478.069,685.500,167.760,-1777.220
814,49199.392000,199.220,202.372,-342.981,-89.628,-19.014,-481.301,817.500,139.760,-1781.220
815,49199.426000,201.178,205.407,-340.015,-86.622,-20.973,-484.305,1073.500,211.760,-1724.220
816,49199.440000,209.010,202.372,-326.178,-66.066,-18.256,-486.641,1326.500,251.760,-1594.220
817,49199.455000,226.631,195.289,-315.305,-37.638,-18.511,-490.097,1546.500,174.760,-1440.220
818,49199.477000,230.547,186.182,-302.456,-21.013,-15.759,-491.379,1737.500,112.760,-1301.220
819,49199.497000,242.294,173.028,-288.618,14.195,-14.144,-492.004,1881.500,115.760,-1085.220
820,49199.515000,262.853,165.945,-269.838,32.839,-16.246,-494.300,1975.500,-9.240,-838.220
821,49199.538000,272.642,148.743,-256.988,72.879,-15.647,-491.071,2042.500,-173.240,-625.220
822,49199.556000,256.979,132.553,-247.104,89.444,-15.803,-487.427,2097.500,-192.240,-374.220
823,49199.583000,241.315,125.470,-237.220,121.629,-12.230,-484.062,2127.500,-85.240,-235.220
824,49199.603000,237.400,116.364,-224.371,146.966,-12.468,-478.604,2174.500,26.760,-14.220
825,49199.622000,240.337,104.221,-203.614,182.928,-10.875,-466.444,2168.500,7.760,186.780
826,49199.657000,234.463,89.043,-184.834,221.930,-17.046,-456.298,2119.500,-112.240,363.780
827,49199.670000,215.862,74.877,-171.985,229.595,-20.030,-445.601,2053.500,-177.240,559.780
828,49199.688000,201.178,62.735,-164.077,265.636,-27.144,-433.432,1977.500,-172.240,782.780
829,49199.708000,195.304,47.557,-152.216,277.250,-34.033,-422.801,1881.500,-190.240,984.780
830,49199.717000,186.493,30.356,-136.402,308.393,-49.814,-405.613,1755.500,-233.240,1178.780
831,49199.738000,169.851,16.190,-124.541,320.024,-54.766,-396.953,1693.500,-251.240,1329.780
832,49199.756000,141.461,-10.119,-115.645,344.370,-76.289,-379.638,1562.500,-251.240,1401.780
833,49199.783000,131.671,-24.285,-106.749,356.974,-93.834,-364.090,1428.500,-226.240,1528.780
834,49199.801000,116.008,-38.451,-100.819,358.865,-105.470,-354.265,1268.500,-200.240,1645.780
835,49199.823000,96.428,-52.617,-94.888,362.767,-128.736,-341.509,1109.500,-174.240,1736.780
836,49199.843000,90.554,-65.771,-94.888,370.538,-141.393,-331.787,926.500,-116.240,1814.780
837,49199.861000,89.576,-73.866,-91.923,363.764,-166.492,-322.778,747.500,-134.240,1871.780
838,49199.891000,76.849,-84.996,-87.969,368.704,-182.988,-316.939,573.500,-251.240,1918.780
839,49199.910000,63.143,-88.032,-92.911,353.168,-210.908,-308.756,382.500,-367.240,1955.780
840,49199.927000,49.438,-89.043,-97.853,343.545,-237.912,-303.632,300.500,-420.240,1976.780
841,49199.956000,34.753,-95.115,-90.934,333.877,-254.270,-301.473,153.500,-532.240,1998.780
842,49199.970000,19.090,-93.091,-94.888,312.409,-281.173,-290.232,-23.500,-638.240,2027.780
843,49199.987000,13.216,-87.020,-100.819,306.627,-292.729,-289.132,-179.500,-680.240,2080.780
844,49200.8000,1.468,-82.972,-98.842,278.483,-321.495,-286.631,-305.500,-726.240,2078.780
845,49200.25000,-18.111,-75.889,-94.888,267.810,-334.943,-284.458,-441.500,-751.240,2059.780
846,49200.51000,-40.627,-68.806,-94.888,229.793,-355.882,-280.807,-570.500,-686.240,2045.780
847,49200.73000,-52.375,-64.759,-99.830,217.111,-373.186,-273.672,-693.500,-548.240,2005.780
848,49200.91000,-52.375,-57.676,-104.772,180.061,-383.488,-274.973,-795.500,-391.240,1975.780
849,49200.113000,-62.164,-52.617,-104.772,146.838,-391.894,-272.406,-846.500,-332.240,1943.780
850,49200.136000,-66.080,-48.569,-104.772,129.357,-400.437,-275.040,-974.500,-190.240,1797.780
851,49200.158000,-67.059,-35.415,-120.587,98.158,-403.050,-279.408,-1161.500,-14.240,1686.780
852,49200.187000,-67.059,-22.261,-129.483,77.749,-404.791,-285.936,-1315.500,115.760,1552.780
853,49200.191000,-62.164,-18.213,-130.471,50.333,-402.607,-285.453,-1461.500,219.760,1435.780
854,49200.217000,-52.375,-5.059,-141.344,29.923,-400.477,-293.955,-1652.500,363.760,1354.780
855,49200.240000,-34.753,9.107,-173.961,-7.252,-395.299,-296.256,-1828.500,353.760,1241.780
856,49200.267000,-18.111,23.273,-198.672,-44.419,-391.088,-298.557,-1909.500,192.760,1116.780
857,49200.276000,3.426,53.628,-220.417,-67.911,-389.907,-298.143,-1991.500,46.760,983.780
858,49200.293000,11.258,87.020,-254.023,-99.415,-381.890,-290.704,-1996.500,-30.240,933.780
859,49200.321000,5.384,104.221,-285.652,-113.235,-381.772,-283.568,-1905.500,-178.240,936.780
860,49200.338000,-4.405,118.387,-291.583,-143.770,-372.797,-276.147,-1744.500,-36.240,1059.780
861,49200.352000,8.321,135.589,-287.629,-156.535,-367.844,-275.927,-1605.500,288.760,1309.780
862,49200.378000,46.501,153.802,-279.722,-189.936,-354.966,-274.367,-1470.500,455.760,1614.780
863,49200.420000,68.038,177.075,-274.780,-223.477,-340.160,-265.915,-1409.500,152.760,1881.780
864,49200.443000,71.954,199.336,-282.687,-246.244,-330.292,-255.679,-1365.500,-369.240,2115.780
865,49200.457000,59.228,219.573,-293.560,-284.849,-321.258,-234.333,-1213.500,-828.240,2309.780
866,49200.466000,18.111,227.668,-302.456,-290.938,-312.506,-226.360,-1018.500,-985.240,2460.780
867,49200.482000,-20.069,237.787,-323.212,-324.757,-293.844,-204.126,-899.500,-1084.240,2519.780
868,49200.506000,-41.606,249.929,-346.934,-341.644,-286.932,-193.006,-608.500,-985.240,2603.780
869,49200.528000,-62.164,259.036,-366.703,-365.444,-267.378,-184.732,-280.500,-823.240,2645.780
870,49200.552000,-84.681,269.154,-390.425,-374.549,-247.957,-177.703,68.500,-554.240,2641.780
871,49200.572000,-104.260,276.237,-404.263,-393.311,-225.536,-179.366,441.500,-273.240,2581.780
872,49200.591000,-109.155,274.213,-402.286,-405.182,-192.527,-189.039,803.500,7.760,2487.780
873,49200.611000,-118.945,263.083,-387.459,-405.203,-178.978,-194.961,1124.500,319.760,2434.780
874,49200.628000,-118.945,248.917,-375.598,-408.104,-145.073,-214.639,1397.500,609.760,2379.780
875,49200.648000,-99.365,231.715,-357.807,-412.939,-132.442,-224.412,1603.500,693.760,2297.780
876,49200.665000,-80.765,216.538,-338.039,-407.872,-102.472,-250.133,1669.500,653.760,2223.780
877,49200.682000,-74.891,202.372,-326.178,-403.936,-89.923,-258.093,1761.500,480.760,2027.780
878,49200.702000,-72.933,189.217,-310.363,-393.015,-63.879,-280.959,1855.500,402.760,1837.780
879,49200.729000,-76.849,177.075,-286.641,-376.134,-43.690,-305.893,1951.500,415.760,1598.780
880,49200.755000,-70.975,162.909,-277.745,-368.109,-36.975,-320.809,2038.500,400.760,1370.780
881,49200.790000,-69.996,146.719,-264.896,-341.451,-23.651,-341.970,2138.500,420.760,1126.780
882,49200.803000,-66.080,129.518,-244.139,-336.432,-13.041,-354.869,2162.500,440.760,878.780
883,49200.822000,-58.249,112.316,-231.290,-309.720,-5.522,-376.024,2144.500,463.760,688.780
884,49200.840000,-52.375,99.162,-215.475,-291.000,-2.780,-385.219,2130.500,470.760,512.780
885,49200.860000,-35.732,80.949,-198.672,-266.299,10.562,-406.345,2062.500,436.760,437.780
886,49200.877000,-19.090,62.735,-190.764,-244.522,13.284,-422.485,1974.500,189.760,223.780
887,49200.920000,-10.279,37.439,-178.903,-232.606,9.315,-430.566,1861.500,-172.240,-37.220
888,49200.925000,-12.237,23.273,-172.973,-206.877,0.389,-442.825,1749.500,-377.240,-252.220
889,49200.943000,-26.922,16.190,-175.938,-195.941,-1.635,-451.876,1706.500,-373.240,-522.220
890,49200.963000,-32.795,1.012,-179.892,-163.449,-12.564,-458.345,1671.500,-227.240,-717.220
891,49200.978000,-20.069,-18.213,-182.857,-153.500,-11.676,-468.366,1635.500,-136.240,-966.220
892,49201.2000,-3.426,-35.415,-174.950,-125.980,-15.790,-473.771,1554.500,-100.240,-1220.220
893,49201.23000,5.384,-43.510,-159.135,-116.108,-17.810,-477.881,1500.500,-48.240,-1305.220
894,49201.30000,13.216,-42.498,-153.205,-85.662,-19.047,-484.325,1413.500,85.760,-1402.220
895,49201.57000,23.985,-44.522,-136.402,-69.962,-20.155,-486.570,1342.500,140.760,-1503.220
896,49201.75000,36.711,-43.510,-109.714,-52.307,-19.345,-489.837,1241.500,148.760,-1571.220
897,49201.97000,48.459,-59.700,-73.143,-36.609,-14.645,-495.042,1097.500,189.760,-1586.220
898,49201.120000,44.543,-64.759,-65.236,-24.892,-15.721,-493.279,934.500,206.760,-1618.220
899,49201.142000,44.543,-65.771,-55.351,-14.200,-8.080,-493.478,773.500,230.760,-1640.220
900,49201.177000,65.101,-70.830,-47.444,-1.471,-7.227,-494.688,590.500,306.760,-1664.220
901,49201.203000,80.765,-73.866,-52.386,4.327,4.330,-496.773,352.500,181.760,-1812.220
902,49201.207000,68.038,-66.783,-58.317,6.223,9.149,-495.828,240.500,38.760,-1933.220
903,49201.230000,56.291,-71.842,-74.131,8.207,4.293,-494.873,38.500,-97.240,-2097.220
904,49201.246000,83.702,-69.818,-93.900,7.217,13.012,-498.803,-148.500,109.760,-2153.220
905,49201.267000,101.323,-39.462,-102.795,-0.750,16.947,-492.760,-275.500,173.760,-2308.220
906,49201.290000,94.470,-26.308,-113.668,-1.782,22.760,-492.749,-322.500,95.760,-2456.220
907,49201.311000,112.092,-17.202,-120.587,-9.585,25.737,-495.568,-371.500,299.760,-2568.220
908,49201.332000,122.860,11.130,-125.529,-15.580,39.334,-495.477,-433.500,509.760,-2705.220
909,49201.355000,136.566,36.427,-136.402,-26.545,50.067,-489.389,-453.500,704.760,-2737.220
910,49201.377000,173.767,41.486,-153.205,-26.616,57.807,-489.397,-461.500,871.760,-2744.220
911,49201.397000,193.346,51.605,-151.228,-43.418,70.531,-486.161,-471.500,822.760,-2780.220
912,49201.417000,171.809,79.937,-142.332,-51.273,75.440,-487.013,-497.500,638.760,-2813.220
913,49201.432000,174.746,114.340,-139.367,-69.123,88.170,-479.821,-521.500,784.760,-2661.220
914,49201.448000,218.799,135.589,-152.216,-73.099,93.041,-478.771,-509.500,1039.760,-2533.220
915,49201.469000,246.210,143.684,-170.996,-84.973,103.788,-476.605,-434.500,723.760,-2689.220
916,49201.493000,230.547,138.625,-192.741,-96.741,102.925,-474.427,-377.500,311.760,-2764.220
917,49201.518000,213.904,138.625,-224.371,-116.406,102.130,-468.171,-325.500,384.760,-2557.220
918,49201.552000,237.400,156.838,-250.069,-123.341,102.187,-463.126,-232.500,549.760,-2362.220
919,49201.581000,271.663,181.123,-282.687,-133.084,105.182,-466.895,-41.500,480.760,-2308.220
920,49201.595000,279.495,191.241,-294.548,-134.943,94.559,-466.850,80.500,124.760,-2331.220
921,49201.608000,268.727,204.395,-299.490,-135.851,90.700,-468.798,309.500,-135.240,-2404.220
922,49201.627000,253.063,217.549,-306.409,-126.021,81.902,-466.993,550.500,-91.240,-2388.220
923,49201.648000,247.189,209.455,-311.351,-126.921,79.012,-469.927,854.500,194.760,-2242.220
924,49201.657000,266.769,196.300,-305.421,-120.020,80.888,-473.989,1133.500,479.760,-2065.220
925,49201.674000,301.033,198.324,-296.525,-98.476,82.629,-476.341,1338.500,480.760,-1891.220
926,49201.697000,330.402,210.466,-290.595,-85.686,80.582,-479.519,1536.500,209.760,-1737.220
927,49201.717000,339.212,212.490,-274.780,-66.012,78.474,-484.786,1754.500,-46.240,-1599.220
928,49201.740000,336.275,195.289,-262.919,-49.377,76.387,-484.094,1853.500,-101.240,-1354.220
929,49201.757000,333.338,168.980,-249.081,-17.062,78.998,-487.622,2023.500,-53.240,-1179.220
930,49201.785000,339.212,153.802,-237.220,-2.368,80.802,-489.853,2127.500,11.760,-765.220
931,49201.802000,338.233,149.755,-220.417,33.846,79.505,-490.492,2189.500,-99.240,-356.220
932,49201.820000,332.359,146.719,-195.707,74.952,74.293,-489.245,2192.500,-349.240,-39.220
933,49201.852000,318.654,137.613,-178.903,94.523,68.307,-486.630,2187.500,-596.240,191.780
934,49201.867000,290.264,128.506,-169.019,135.658,56.321,-483.406,2170.500,-677.240,365.780
935,49201.890000,263.832,111.304,-160.124,150.223,53.277,-475.785,2161.500,-551.240,560.780
936,49201.922000,249.147,92.079,-154.193,188.301,41.311,-465.616,2130.500,-395.240,781.780
937,49201.951000,242.294,71.842,-138.378,207.742,38.222,-457.096,2088.500,-365.240,891.780
938,49201.954000,230.547,63.747,-130.471,246.824,25.280,-447.928,1966.500,-410.240,1085.780
939,49201.972000,215.862,54.640,-120.587,260.475,9.666,-437.322,1844.500,-476.240,1245.780
940,49201.987000,194.325,40.474,-107.737,287.825,-8.008,-425.972,1712.500,-494.240,1394.780
941,49202.7000,175.725,20.237,-106.749,313.073,-30.512,-403.750,1592.500,-423.240,1536.780
942,49202.25000,159.082,2.024,-99.830,320.946,-37.356,-402.896,1455.500,-313.240,1678.780
943,49202.47000,143.419,-18.213,-95.876,334.599,-60.713,-388.344,1292.500,-196.240,1808.780
944,49202.65000,138.524,-31.368,-93.900,346.230,-69.537,-377.710,1132.500,-110.240,1933.780
945,49202.87000,134.608,-42.498,-89.946,357.061,-97.700,-367.040,940.500,-142.240,2045.780
946,49202.110000,125.797,-50.593,-85.992,348.285,-112.137,-360.961,848.500,-196.240,2086.780
947,49202.132000,110.134,-58.688,-83.027,349.374,-141.177,-352.086,663.500,-298.240,2146.780
948,49202.167000,93.491,-64.759,-89.946,343.641,-173.057,-343.087,481.500,-389.240,2172.780
949,49202.171000,75.870,-72.854,-98.842,333.929,-188.450,-338.960,353.500,-425.240,2203.780
950,49202.205000,66.080,-81.960,-95.876,322.299,-217.374,-329.860,208.500,-387.240,2230.780
951,49202.223000,57.270,-80.949,-93.900,318.580,-236.686,-330.756,72.500,-376.240,2253.780
952,49202.245000,43.564,-81.960,-96.865,297.189,-260.680,-325.427,-58.500,-427.240,2272.780
953,49202.256000,23.985,-86.008,-102.795,281.684,-275.048,-326.121,-165.500,-384.240,2293.780
954,49202.282000,11.258,-87.020,-95.876,253.496,-298.977,-323.625,-310.500,-296.240,2269.780
955,49202.300000,0.489,-77.913,-85.004,229.090,-318.109,-316.280,-397.500,-262.240,2255.780
956,49202.322000,-9.300,-75.889,-77.097,212.718,-327.622,-325.823,-597.500,-248.240,2199.780
957,49202.346000,-19.090,-73.866,-88.958,176.605,-346.646,-320.240,-793.500,-354.240,2070.780
958,49202.369000,-38.669,-68.806,-100.819,163.029,-354.258,-322.944,-929.500,-510.240,1860.780
959,49202.387000,-62.164,-70.830,-97.853,131.798,-366.551,-320.408,-1087.500,-480.240,1664.780
960,49202.416000,-51.396,-72.854,-93.900,113.277,-370.250,-322.045,-1315.500,-374.240,1588.780
961,49202.436000,-62.164,-43.510,-118.610,80.989,-375.763,-318.514,-1461.500,-502.240,1340.780
962,49202.451000,-88.597,-35.415,-118.610,61.464,-384.294,-316.190,-1564.500,-488.240,1171.780
963,49202.473000,-80.765,-19.225,-134.425,24.317,-387.826,-315.528,-1681.500,-161.240,1193.780
964,49202.489000,-56.291,0.000,-157.158,-5.030,-382.719,-317.968,-1740.500,31.760,1193.780
965,49202.500000,-46.501,14.166,-170.996,-28.549,-380.571,-316.570,-1834.500,190.760,1086.780
966,49202.533000,-50.417,25.296,-182.857,-61.836,-378.334,-315.984,-1936.500,97.760,965.780
967,49202.556000,-38.669,47.557,-190.764,-74.662,-370.481,-313.797,-2006.500,203.760,929.780
968,49202.578000,-17.132,71.842,-219.429,-113.926,-358.517,-312.132,-2054.500,440.760,912.780
969,49202.596000,2.447,90.055,-254.023,-127.590,-358.391,-313.860,-2032.500,522.760,896.780
970,49202.601000,26.922,95.115,-258.965,-159.034,-347.467,-311.347,-1910.500,507.760,889.780
971,49202.628000,52.375,120.411,-257.977,-190.558,-329.772,-307.857,-1895.500,500.760,927.780
972,49202.656000,63.143,157.850,-271.815,-209.280,-324.770,-302.609,-1854.500,497.760,1021.780
973,49202.673000,71.954,172.016,-289.606,-237.955,-309.043,-293.260,-1786.500,415.760,1120.780
974,49202.682000,96.428,178.087,-292.571,-247.879,-305.090,-287.182,-1644.500,394.760,1380.780
975,49202.710000,109.155,193.265,-293.560,-276.553,-289.362,-277.833,-1567.500,148.760,1494.780
976,49202.727000,88.597,212.490,-315.305,-298.315,-282.404,-267.612,-1476.500,-318.240,1653.780
977,49202.745000,66.080,219.573,-332.108,-319.377,-269.664,-244.612,-1279.500,-601.240,1932.780
978,49202.768000,52.375,234.751,-349.900,-351.152,-252.951,-226.349,-1042.500,-671.240,2169.780
979,49202.791000,36.711,253.976,-366.703,-363.070,-239.303,-223.201,-760.500,-746.240,2360.780
980,49202.812000,17.132,264.095,-386.471,-379.172,-218.860,-208.173,-420.500,-877.240,2498.780
981,49202.837000,-8.321,271.178,-403.274,-389.142,-208.135,-203.087,-240.500,-940.240,2529.780
982,49202.861000,-40.627,275.225,-412.170,-406.102,-185.740,-195.922,147.500,-978.240,2528.780
983,49202.881000,-67.059,277.249,-411.181,-410.071,-172.157,-199.805,560.500,-821.240,2530.780
984,49202.898000,-82.723,272.190,-397.344,-417.039,-147.903,-205.617,981.500,-492.240,2532.780
985,49202.918000,-79.786,253.976,-373.622,-413.253,-120.845,-212.607,1335.500,-152.240,2512.780
986,49202.941000,-64.122,229.692,-368.680,-415.041,-105.331,-230.314,1562.500,-57.240,2432.780
987,49202.963000,-55.312,209.455,-367.691,-403.184,-82.202,-249.255,1741.500,-237.240,2191.780
988,49202.976000,-69.996,196.300,-345.946,-407.914,-75.373,-261.977,1893.500,-446.240,1831.780
989,49202.990000,-94.470,194.277,-314.317,-383.177,-65.901,-283.100,2040.500,-297.240,1551.780
990,49203.15000,-99.365,190.229,-292.571,-381.084,-56.232,-295.946,2109.500,-93.240,1462.780
991,49203.35000,-79.786,167.968,-268.849,-361.242,-38.972,-320.929,2219.500,310.760,1309.780
992,49203.62000,-54.333,148.743,-247.104,-350.289,-35.187,-333.925,2244.500,448.760,1148.780
993,49203.100000,-42.585,132.553,-229.313,-326.533,-19.899,-357.990,2229.500,322.760,913.780
994,49203.113000,-41.606,116.364,-221.405,-301.699,-19.133,-380.088,2191.500,124.760,670.780
995,49203.122000,-45.522,98.150,-210.533,-284.849,-16.368,-394.172,2161.500,-7.240,445.780
996,49203.146000,-49.438,81.960,-201.637,-265.045,-15.565,-408.305,2148.500,-72.240,241.780
997,49203.166000,-46.501,65.771,-190.764,-247.182,-12.807,-424.376,2130.500,-72.240,59.780
998,49203.195000,-45.522,51.605,-180.880,-218.563,-16.923,-436.691,2122.500,-44.240,-153.220
999,49203.198000,-44.543,28.332,-169.019,-205.687,-17.030,-445.779,2090.500,-17.240,-238.220
1000,49203.223000,-38.669,7.083,-157.158,-171.240,-18.298,-457.216,2024.500,67.760,-414.220
