Sample, Time, ACCX, ACCY, ACCZ, MAGX, MAGY, MAGZ, GYRX, GYRY, GYRZ
0,49018.12000,-56.291,-49.581,-234.255,120.539,-389.711,-279.819,-13.500,12.760,12.780
1,49018.39000,-56.291,-49.581,-233.266,120.539,-389.711,-279.819,-20.500,-9.240,7.780
2,49018.71000,-60.207,-47.557,-235.243,117.526,-390.656,-274.843,-27.500,-29.240,-6.220
3,49018.90000,-60.207,-46.545,-238.208,125.458,-392.658,-279.903,-18.500,-16.240,-9.220
4,49018.104000,-59.228,-48.569,-238.208,127.372,-393.646,-276.982,-8.500,-4.240,-6.220
5,49018.126000,-59.228,-48.569,-236.232,115.647,-391.602,-278.746,-0.500,-3.240,-1.220
6,49018.146000,-60.207,-47.557,-236.232,119.509,-389.705,-276.848,5.500,7.760,9.780
7,49018.169000,-58.249,-49.581,-235.243,122.540,-392.630,-280.836,7.500,14.760,8.780
8,49018.189000,-56.291,-48.569,-235.243,119.605,-394.539,-279.797,5.500,-8.240,-2.220
9,49018.206000,-58.249,-47.557,-233.266,119.484,-394.546,-272.904,-1.500,-37.240,-13.220
10,49018.229000,-59.228,-48.569,-232.278,123.441,-393.611,-275.928,-2.500,-21.240,-13.220
11,49018.256000,-58.249,-47.557,-232.278,122.489,-394.569,-276.895,-0.500,-1.240,-8.220
12,49018.277000,-56.291,-48.569,-231.290,117.543,-390.656,-275.827,0.500,-4.240,-7.220
13,49018.290000,-55.312,-49.581,-231.290,118.514,-391.633,-274.859,-9.500,-9.240,-7.220
14,49018.307000,-56.291,-49.581,-232.278,122.445,-391.667,-275.913,-8.500,-3.240,-3.220
15,49018.329000,-58.249,-48.569,-231.290,121.475,-392.626,-275.895,-10.500,0.760,-1.220
16,49018.350000,-57.270,-48.569,-232.278,125.415,-391.692,-277.934,-11.500,4.760,2.780
17,49018.369000,-57.270,-49.581,-232.278,118.479,-391.635,-272.889,-11.500,10.760,10.780
18,49018.396000,-57.270,-50.593,-232.278,116.635,-394.514,-277.776,-14.500,3.760,12.780
19,49018.411000,-57.270,-50.593,-232.278,123.423,-391.676,-275.930,-18.500,-4.240,12.780
20,49018.434000,-56.291,-48.569,-231.290,121.528,-394.559,-277.862,-27.500,-9.240,8.780
21,49018.461000,-59.228,-48.569,-230.301,118.566,-395.501,-275.840,-32.500,-9.240,10.780
22,49018.480000,-59.228,-48.569,-232.278,124.455,-395.554,-276.928,-30.500,11.760,12.780
23,49018.499000,-59.228,-47.557,-230.301,120.488,-391.650,-275.878,-33.500,25.760,19.780
24,49018.519000,-57.270,-49.581,-230.301,112.721,-394.479,-277.706,-39.500,15.760,22.780
25,49018.539000,-57.270,-47.557,-232.278,112.685,-388.673,-278.697,-43.500,3.760,20.780
26,49018.559000,-60.207,-50.593,-230.301,118.627,-396.466,-278.793,-46.500,-6.240,11.780
27,49018.581000,-62.164,-49.581,-230.301,117.682,-392.584,-282.719,-50.500,0.760,2.780
28,49018.602000,-60.207,-45.534,-232.278,115.691,-394.503,-279.728,-55.500,15.760,-1.220
29,49018.625000,-59.228,-44.522,-232.278,123.545,-393.605,-281.837,-65.500,7.760,-6.220
30,49018.644000,-57.270,-46.545,-232.278,116.652,-392.578,-279.747,-75.500,-17.240,-18.220
31,49018.661000,-59.228,-44.522,-234.255,112.781,-391.572,-282.633,-73.500,0.760,-17.220
32,49018.689000,-62.164,-43.510,-232.278,112.677,-389.642,-277.711,-63.500,49.760,3.780
33,49018.704000,-59.228,-44.522,-232.278,111.812,-394.466,-281.628,-62.500,69.760,15.780
34,49018.721000,-55.312,-46.545,-231.290,112.737,-390.606,-280.665,-68.500,55.760,12.780
35,49018.744000,-52.375,-46.545,-233.266,107.870,-387.657,-283.535,-84.500,0.760,-3.220
36,49018.764000,-57.270,-42.498,-235.243,108.849,-389.601,-282.566,-90.500,-26.240,-7.220
37,49018.791000,-58.249,-42.498,-235.243,110.832,-390.585,-283.584,-84.500,7.760,-8.220
38,49018.829000,-59.228,-42.498,-235.243,107.896,-388.623,-284.519,-75.500,51.760,1.780
39,49018.837000,-55.312,-43.510,-235.243,108.875,-390.568,-283.550,-70.500,62.760,8.780
40,49018.851000,-54.333,-41.486,-235.243,110.884,-390.583,-286.539,-72.500,49.760,14.780
41,49018.865000,-53.354,-41.486,-235.243,109.862,-387.672,-285.540,-68.500,46.760,24.780
42,49018.890000,-54.333,-41.486,-231.290,104.096,-391.485,-289.371,-74.500,41.760,30.780
43,49018.910000,-54.333,-40.474,-232.278,104.033,-384.713,-289.378,-80.500,34.760,30.780
44,49018.924000,-54.333,-38.451,-233.266,105.047,-388.591,-289.391,-88.500,35.760,32.780
45,49018.952000,-54.333,-37.439,-234.255,105.965,-387.636,-286.455,-95.500,32.760,28.780
46,49018.970000,-54.333,-36.427,-238.208,107.023,-392.480,-288.437,-105.500,25.760,19.780
47,49018.992000,-56.291,-34.403,-241.174,95.253,-385.599,-290.206,-102.500,12.760,14.780
48,49019.10000,-57.270,-34.403,-244.139,100.129,-387.581,-288.321,-91.500,26.760,18.780
49,49019.30000,-55.312,-31.368,-244.139,96.301,-387.540,-293.175,-71.500,48.760,26.780
50,49019.47000,-54.333,-32.379,-243.151,100.206,-384.672,-294.232,-56.500,33.760,33.780
51,49019.67000,-55.312,-31.368,-244.139,100.215,-385.640,-294.231,-48.500,23.760,39.780
52,49019.90000,-55.312,-31.368,-242.162,99.211,-388.536,-291.257,-42.500,10.760,40.780
53,49019.117000,-57.270,-29.344,-241.174,105.082,-386.654,-292.347,-34.500,13.760,32.780
54,49019.146000,-57.270,-33.391,-240.185,90.377,-381.682,-293.077,-29.500,23.760,28.780
55,49019.161000,-54.333,-33.391,-240.185,93.374,-386.545,-294.109,-28.500,39.760,21.780
56,49019.175000,-53.354,-32.379,-239.197,101.211,-385.648,-295.233,-28.500,21.760,12.780
57,49019.200000,-56.291,-31.368,-236.232,96.352,-383.666,-298.103,-32.500,-3.240,2.780
58,49019.228000,-56.291,-31.368,-237.220,91.382,-384.593,-293.092,-34.500,14.760,2.780
59,49019.236000,-55.312,-32.379,-237.220,100.258,-386.605,-296.200,-31.500,45.760,-0.220
60,49019.259000,-52.375,-31.368,-236.232,92.377,-380.730,-296.067,-38.500,44.760,-9.220
61,49019.276000,-53.354,-29.344,-232.278,91.434,-384.590,-296.046,-43.500,24.760,-15.220
62,49019.299000,-56.291,-29.344,-230.301,96.378,-384.632,-299.087,-55.500,26.760,-18.220
63,49019.319000,-53.354,-27.320,-234.255,95.436,-388.493,-299.066,-58.500,64.760,-0.220
64,49019.341000,-48.459,-29.344,-232.278,95.408,-383.655,-300.055,-64.500,66.760,-1.220
65,49019.362000,-50.417,-28.332,-231.290,92.456,-383.629,-299.019,-86.500,17.760,-11.220
66,49019.384000,-53.354,-27.320,-240.185,85.632,-382.597,-300.868,-94.500,9.760,2.780
67,49019.399000,-52.375,-27.320,-240.185,93.469,-383.636,-301.005,-88.500,24.760,-2.220
68,49019.419000,-52.375,-26.308,-242.162,90.585,-383.606,-303.908,-87.500,-4.240,-12.220
69,49019.441000,-54.333,-24.285,-245.127,84.628,-383.558,-298.880,-85.500,-12.240,-12.220
70,49019.466000,-54.333,-26.308,-247.104,87.571,-380.680,-300.905,-68.500,4.760,-15.220
71,49019.489000,-54.333,-24.285,-250.069,88.515,-380.691,-298.952,-54.500,30.760,-18.220
72,49019.509000,-52.375,-23.273,-247.104,86.601,-379.703,-301.873,-42.500,29.760,-21.220
73,49019.526000,-53.354,-25.296,-247.104,93.424,-378.799,-301.010,-32.500,13.760,-24.220
74,49019.549000,-53.354,-23.273,-246.116,88.584,-378.751,-303.878,-14.500,29.760,-22.220
75,49019.572000,-53.354,-24.285,-243.151,92.515,-378.786,-304.932,-0.500,38.760,-13.220
76,49019.590000,-50.417,-25.296,-242.162,88.583,-376.816,-304.865,1.500,28.760,-13.220
77,49019.609000,-51.396,-25.296,-240.185,83.701,-381.610,-302.804,1.500,18.760,-20.220
78,49019.626000,-52.375,-24.285,-241.174,87.596,-377.775,-303.862,1.500,18.760,-23.220
79,49019.649000,-49.438,-25.296,-239.197,84.653,-380.653,-301.837,0.500,8.760,-24.220
80,49019.671000,-51.396,-27.320,-236.232,87.553,-376.810,-301.893,-9.500,-10.240,-32.220
81,49019.694000,-51.396,-25.296,-237.220,90.523,-378.770,-302.928,-12.500,3.760,-33.220
82,49019.712000,-50.417,-26.308,-238.208,90.549,-377.801,-304.898,-13.500,17.760,-28.220
83,49019.732000,-49.438,-26.308,-239.197,84.678,-377.748,-304.795,-19.500,5.760,-32.220
84,49019.751000,-49.438,-25.296,-240.185,92.489,-377.820,-303.948,-19.500,-14.240,-32.220
85,49019.773000,-50.417,-25.296,-241.174,91.607,-382.645,-306.880,-13.500,-4.240,-26.220
86,49019.796000,-50.417,-26.308,-241.174,91.571,-378.775,-306.884,-11.500,26.760,-23.220
87,49019.821000,-50.417,-27.320,-241.174,94.446,-379.773,-302.996,-10.500,37.760,-24.220
88,49019.840000,-46.501,-28.332,-238.208,86.609,-376.799,-303.845,-14.500,23.760,-27.220
89,49019.859000,-44.543,-27.320,-239.197,89.588,-377.791,-305.866,-20.500,-7.240,-34.220
90,49019.881000,-48.459,-25.296,-240.185,95.459,-377.844,-305.970,-22.500,-25.240,-21.220
91,49019.885000,-49.438,-26.308,-241.174,87.605,-378.743,-303.861,-16.500,-1.240,-10.220
92,49019.904000,-49.438,-24.285,-240.185,89.562,-376.825,-304.882,-11.500,7.760,-4.220
93,49019.931000,-48.459,-24.285,-241.174,94.471,-376.868,-305.953,-8.500,2.760,2.780
94,49019.959000,-49.438,-24.285,-242.162,93.571,-377.823,-309.874,-4.500,9.760,8.780
95,49019.976000,-49.438,-24.285,-243.151,90.479,-375.869,-301.946,-3.500,-7.240,1.780
96,49019.999000,-51.396,-26.308,-241.174,90.628,-380.700,-307.850,-2.500,-11.240,-3.220
97,49020.19000,-53.354,-25.296,-242.162,93.520,-379.761,-305.933,3.500,6.760,-1.220
98,49020.39000,-49.438,-24.285,-239.197,85.682,-376.787,-306.782,8.500,25.760,8.780
99,49020.56000,-47.480,-25.296,-239.197,85.621,-375.823,-303.829,3.500,-2.240,5.780
100,49020.76000,-49.438,-26.308,-239.197,88.627,-379.717,-305.847,-5.500,-26.240,-1.220
101,49020.99000,-52.375,-26.308,-239.197,87.597,-381.647,-301.888,-12.500,-17.240,-9.220
102,49020.122000,92.512,141.660,-238.208,81.710,-385.466,-298.826,-52.500,-943.240,301.780
103,49020.146000,-37.690,-46.545,-217.452,79.563,-387.395,-286.973,-164.500,-842.240,-40.220
104,49020.184000,-122.860,-72.854,-242.162,89.444,-392.318,-290.095,-117.500,152.760,-141.220
105,49020.202000,-113.071,-36.427,-247.104,88.586,-386.495,-299.931,-49.500,525.760,-130.220
106,49020.216000,-70.975,-10.119,-247.104,80.766,-383.519,-301.765,48.500,802.760,-95.220
107,49020.229000,-23.985,-20.237,-248.093,82.772,-375.791,-308.701,70.500,448.760,18.780
108,49020.242000,-42.585,-27.320,-257.977,89.605,-375.854,-307.837,-30.500,10.760,-12.220
109,49020.265000,-52.375,-16.190,-253.035,85.682,-374.851,-307.769,-17.500,-104.240,-32.220
110,49020.287000,-49.438,-20.237,-247.104,83.716,-375.802,-306.749,23.500,-82.240,-9.220
111,49020.310000,-54.333,-20.237,-246.116,89.641,-381.660,-306.847,22.500,-85.240,-16.220
112,49020.327000,-55.312,-19.225,-245.127,86.644,-380.668,-303.842,39.500,0.760,6.780
113,49020.350000,-52.375,-20.237,-241.174,83.717,-377.738,-305.762,60.500,89.760,32.780
114,49020.370000,-47.480,-25.296,-238.208,85.656,-373.885,-306.785,61.500,101.760,32.780
115,49020.387000,-45.522,-24.285,-236.232,92.601,-376.845,-310.843,54.500,69.760,22.780
116,49020.410000,-48.459,-24.285,-237.220,91.554,-378.776,-305.900,45.500,-2.240,5.780
117,49020.441000,-51.396,-25.296,-235.243,90.558,-378.768,-304.897,35.500,-46.240,0.780
118,49020.445000,-53.354,-25.296,-234.255,92.515,-378.786,-304.932,24.500,-46.240,6.780
119,49020.471000,-52.375,-25.296,-233.266,82.712,-376.762,-304.761,27.500,-0.240,8.780
120,49020.497000,-50.417,-25.296,-236.232,88.566,-376.817,-303.880,13.500,14.760,2.780
121,49020.514000,-16.153,-101.186,-288.618,89.502,-379.732,-299.955,42.500,-62.240,37.780
122,49020.530000,-32.795,-37.439,-231.290,89.581,-384.567,-301.920,-154.500,-276.240,41.780
123,49020.565000,-95.449,-38.451,-244.139,90.517,-387.482,-297.995,-68.500,-388.240,-116.220
124,49020.587000,-86.639,-29.344,-247.104,89.563,-382.632,-301.922,-59.500,154.760,-77.220
125,49020.615000,-52.375,-17.202,-247.104,85.656,-375.821,-305.799,9.500,463.760,-68.220
126,49020.634000,-25.943,-17.202,-249.081,84.756,-376.775,-309.719,76.500,333.760,-33.220
127,49020.647000,-32.795,-8.095,-249.081,94.489,-378.803,-305.951,-42.500,-56.240,-62.220
128,49020.665000,-53.354,-19.225,-256.988,87.622,-378.742,-304.846,3.500,-203.240,-25.220
129,49020.680000,-57.270,-23.273,-250.069,86.592,-376.800,-302.861,44.500,-88.240,-5.220
130,49020.696000,-52.375,-21.249,-242.162,88.593,-379.719,-303.877,62.500,-19.240,-5.220
131,49020.717000,-53.354,-24.285,-240.185,87.562,-377.777,-301.892,65.500,-4.240,1.780
132,49020.745000,-52.375,-25.296,-236.232,88.583,-376.816,-304.865,66.500,50.760,9.780
133,49020.767000,-46.501,-26.308,-234.255,87.630,-375.837,-306.818,64.500,78.760,22.780
134,49020.785000,-45.522,-29.344,-233.266,93.493,-378.795,-304.949,51.500,31.760,24.780
135,49020.802000,-47.480,-27.320,-231.290,93.528,-376.857,-307.906,34.500,-28.240,12.780
136,49020.824000,-50.417,-28.332,-232.278,90.532,-377.802,-303.914,21.500,-51.240,3.780
137,49020.846000,-50.417,-30.356,-233.266,88.584,-380.687,-302.891,5.500,-34.240,7.780
138,49020.864000,-52.375,-28.332,-234.255,93.450,-379.765,-301.994,-5.500,-9.240,10.780
139,49020.892000,-51.396,-29.344,-236.232,91.519,-378.778,-303.930,-7.500,7.760,2.780
140,49020.901000,-51.396,-29.344,-237.220,88.498,-382.628,-296.981,-676.500,9.760,64.780
141,49020.929000,-135.587,-247.905,-218.440,86.542,-386.482,-294.973,902.500,-1364.240,653.780
142,49020.951000,-54.333,-83.984,-224.371,81.522,-395.156,-283.060,-200.500,-908.240,161.780
143,49020.969000,-147.335,-63.747,-242.162,79.626,-398.038,-284.992,-354.500,-281.240,-251.220
144,49020.991000,-137.545,-29.344,-254.023,82.577,-388.385,-290.963,-156.500,810.760,-248.220
145,49021.9000,-91.533,4.047,-260.942,91.589,-380.710,-306.882,187.500,1515.760,-127.220
146,49021.31000,34.753,5.059,-237.220,90.582,-371.992,-309.828,98.500,455.760,62.780
147,49021.46000,-6.363,-25.296,-250.069,89.639,-375.852,-309.807,-100.500,-416.240,-103.220
148,49021.79000,-59.228,-24.285,-264.896,83.735,-379.672,-305.760,-25.500,-408.240,-24.220
149,49021.111000,-72.933,-19.225,-256.000,84.653,-380.653,-301.837,24.500,-241.240,12.780
150,49021.111000,-56.291,-22.261,-245.127,88.610,-379.718,-304.862,75.500,-15.240,18.780
151,49021.140000,-53.354,-21.249,-241.174,86.636,-379.701,-303.843,66.500,61.760,29.780
152,49021.157000,-47.480,-20.237,-242.162,91.563,-381.679,-304.912,59.500,105.760,37.780
153,49021.178000,-48.459,-23.273,-235.243,88.593,-379.719,-303.877,53.500,108.760,31.780
154,49021.195000,-45.522,-26.308,-234.255,84.722,-380.649,-305.776,44.500,56.760,31.780
155,49021.224000,-43.564,-27.320,-235.243,84.687,-378.715,-304.794,32.500,-30.240,26.780
156,49021.241000,-48.459,-27.320,-237.220,93.416,-381.703,-299.038,29.500,-49.240,22.780
157,49021.250000,-50.417,-24.285,-234.255,91.502,-378.779,-302.945,14.500,-53.240,24.780
158,49021.272000,-52.375,-25.296,-238.208,94.446,-379.773,-302.996,12.500,-46.240,22.780
159,49021.294000,-52.375,-25.296,-240.185,85.683,-378.723,-305.796,12.500,-10.240,7.780
160,49021.315000,-53.354,-25.296,-238.208,87.562,-379.713,-300.906,17.500,34.760,4.780
161,49021.332000,-50.417,-25.296,-236.232,89.580,-380.695,-303.893,15.500,46.760,24.780
162,49021.355000,-45.522,-26.308,-237.220,90.566,-377.800,-305.883,10.500,-3.240,34.780
163,49021.382000,-47.480,-25.296,-238.208,86.600,-377.767,-302.860,-1.500,-55.240,24.780
164,49021.406000,-52.375,-24.285,-237.220,92.472,-379.756,-301.977,-6.500,-54.240,19.780
165,49021.421000,-54.333,-24.285,-239.197,89.554,-379.729,-302.910,-0.500,4.760,16.780
166,49021.446000,-54.333,-25.296,-237.220,91.458,-375.878,-301.963,4.500,48.760,18.780
167,49021.479000,-50.417,-25.296,-237.220,83.691,-378.707,-303.792,3.500,51.760,24.780
168,49021.497000,-46.501,-25.296,-237.220,90.524,-380.706,-301.941,-6.500,-3.240,28.780
169,49021.511000,-49.438,-25.296,-239.197,83.709,-380.642,-303.790,-18.500,-60.240,18.780
170,49021.534000,-54.333,-24.285,-239.197,89.589,-381.663,-303.892,-16.500,-49.240,13.780
171,49021.544000,-58.249,-25.296,-241.174,88.628,-381.653,-304.860,-4.500,13.760,12.780
172,49021.566000,-54.333,-23.273,-241.174,86.653,-379.700,-304.827,1.500,38.760,6.780
173,49021.589000,-50.417,-23.273,-242.162,88.611,-383.589,-302.888,0.500,3.760,7.780
174,49021.609000,-51.396,-26.308,-241.174,84.696,-379.682,-304.793,-0.500,-31.240,9.780
175,49021.629000,-53.354,-24.285,-243.151,86.670,-377.763,-306.799,8.500,-18.240,13.780
176,49021.651000,-53.354,-25.296,-242.162,87.675,-382.610,-305.826,16.500,-7.240,14.780
177,49021.669000,-53.354,-24.285,-242.162,83.656,-376.773,-302.809,17.500,-0.240,12.780
178,49021.685000,-53.354,-25.296,-238.208,83.709,-380.642,-303.790,17.500,-6.240,-3.220
179,49021.720000,-54.333,-26.308,-238.208,82.635,-379.670,-298.850,16.500,-5.240,-10.220
180,49021.729000,-51.396,-28.332,-238.208,81.699,-376.755,-302.774,17.500,5.760,-5.220
181,49021.756000,-48.459,-26.308,-237.220,85.649,-380.661,-302.839,11.500,-9.240,-10.220
182,49021.772000,-51.396,-25.296,-237.220,87.623,-382.613,-302.872,4.500,-45.240,-8.220
183,49021.810000,-51.396,-26.308,-238.208,89.529,-384.570,-298.966,4.500,-45.240,-6.220
184,49021.810000,-51.396,-25.296,-238.208,86.601,-379.703,-301.873,2.500,-27.240,-5.220
185,49021.827000,-51.396,-25.296,-241.174,82.644,-380.638,-298.849,3.500,-22.240,-1.220
186,49021.850000,-51.396,-26.308,-239.197,83.665,-379.676,-301.821,2.500,-21.240,7.780
187,49021.877000,-52.375,-26.308,-238.208,89.520,-381.667,-299.953,4.500,-12.240,9.780
188,49021.900000,-52.375,-28.332,-239.197,87.537,-382.618,-297.948,11.500,1.760,13.780
189,49021.917000,-50.417,-27.320,-241.174,86.628,-384.541,-300.883,14.500,0.760,15.780
190,49021.937000,-52.375,-28.332,-239.197,86.628,-382.605,-301.870,15.500,-12.240,19.780
191,49021.961000,-52.375,-28.332,-236.232,85.623,-381.630,-300.869,13.500,-20.240,19.780
192,49021.980000,-53.354,-26.308,-237.220,87.546,-385.521,-296.961,12.500,-22.240,19.780
193,49021.995000,-53.354,-27.320,-237.220,86.618,-379.702,-302.858,7.500,-17.240,15.780
194,49022.17000,-52.375,-26.308,-236.232,91.512,-383.618,-300.971,2.500,-14.240,8.780
195,49022.37000,-53.354,-27.320,-239.197,89.468,-381.669,-296.999,-3.500,-20.240,1.780
196,49022.66000,-54.333,-27.320,-240.185,87.581,-387.455,-297.943,-9.500,-27.240,-5.220
197,49022.84000,-54.333,-26.308,-241.174,84.610,-381.623,-298.882,-4.500,-11.240,2.780
198,49022.104000,-52.375,-26.308,-239.197,90.516,-385.546,-298.982,7.500,5.760,11.780
199,49022.126000,-52.375,-26.308,-240.185,86.594,-384.543,-298.914,14.500,-6.240,12.780
200,49022.140000,-53.354,-26.308,-238.208,84.672,-386.459,-299.862,11.500,-16.240,8.780
201,49022.157000,-51.396,-26.308,-240.185,86.550,-381.642,-297.932,8.500,-19.240,11.780
202,49022.185000,-51.396,-27.320,-239.197,87.616,-387.453,-299.913,6.500,-25.240,10.780
203,49022.207000,-54.333,-26.308,-238.208,84.619,-384.526,-297.894,6.500,-29.240,10.780
204,49022.230000,-56.291,-26.308,-239.197,82.688,-383.539,-299.830,16.500,0.760,21.780
205,49022.245000,-51.396,-28.332,-238.208,84.585,-384.528,-295.925,22.500,18.760,29.780
206,49022.267000,-52.375,-27.320,-238.208,87.581,-385.519,-298.930,15.500,-16.240,21.780
207,49022.286000,-54.333,-27.320,-239.197,82.670,-381.604,-299.832,8.500,-28.240,11.780
208,49022.302000,-55.312,-26.308,-238.208,89.547,-386.505,-298.964,9.500,-20.240,9.780
209,49022.325000,-57.270,-28.332,-236.232,83.658,-384.516,-298.862,11.500,-1.240,4.780
210,49022.347000,-54.333,-28.332,-237.220,85.606,-383.567,-298.898,11.500,17.760,10.780
211,49022.365000,-53.354,-27.320,-237.220,85.624,-385.502,-298.896,13.500,15.760,14.780
212,49022.382000,-53.354,-25.296,-237.220,85.580,-384.536,-296.927,5.500,-9.240,13.780
213,49022.405000,-52.375,-25.296,-234.255,87.581,-385.519,-298.930,-1.500,-35.240,5.780
214,49022.426000,-54.333,-26.308,-236.232,82.637,-387.414,-294.903,-9.500,-50.240,-2.220
215,49022.454000,-55.312,-26.308,-236.232,83.632,-383.550,-297.878,-13.500,-32.240,3.780
216,49022.471000,-54.333,-28.332,-239.197,88.517,-388.434,-295.005,-12.500,-22.240,14.780
217,49022.494000,-54.333,-27.320,-240.185,83.658,-384.516,-298.862,-12.500,-25.240,12.780
218,49022.514000,-56.291,-25.296,-243.151,81.675,-383.532,-297.844,-9.500,-16.240,5.780
219,49022.545000,-56.291,-27.320,-245.127,79.797,-388.349,-299.774,2.500,-1.240,-7.220
220,49022.564000,-54.333,-27.320,-247.104,82.655,-389.348,-294.901,9.500,0.760,-13.220
221,49022.583000,-54.333,-27.320,-245.127,84.681,-389.362,-298.874,21.500,-7.240,-9.220
222,49022.596000,-55.312,-26.308,-241.174,87.546,-383.585,-297.947,38.500,-1.240,8.780
223,49022.614000,-54.333,-26.308,-237.220,86.602,-385.510,-298.913,55.500,13.760,29.780
224,49022.634000,-54.333,-29.344,-230.301,89.486,-387.476,-295.024,57.500,27.760,44.780
225,49022.656000,-54.333,-31.368,-223.382,90.499,-385.547,-297.997,40.500,47.760,53.780
226,49022.676000,-55.312,-32.379,-215.475,81.658,-383.533,-296.859,17.500,104.760,74.780
227,49022.699000,-53.354,-32.379,-209.544,80.740,-384.489,-299.795,-11.500,176.760,92.780
228,49022.721000,-49.438,-34.403,-197.683,85.597,-382.599,-298.898,-59.500,211.760,96.780
229,49022.744000,-48.459,-34.403,-186.811,77.890,-382.521,-305.653,-91.500,230.760,98.780
230,49022.761000,-50.417,-39.462,-175.938,75.942,-381.535,-306.605,-176.500,306.760,117.780
231,49022.784000,-45.522,-40.474,-172.973,73.039,-375.699,-311.482,-271.500,387.760,133.780
232,49022.801000,-36.711,-32.379,-169.019,69.280,-371.783,-322.249,-364.500,366.760,131.780
233,49022.824000,-39.648,-27.320,-164.077,59.399,-366.860,-319.127,-452.500,298.760,169.780
234,49022.844000,-45.522,-26.308,-158.147,45.846,-361.888,-329.722,-583.500,339.760,192.780
235,49022.866000,-35.732,-20.237,-161.112,49.768,-360.955,-330.777,-740.500,314.760,162.780
236,49022.886000,-32.795,-12.142,-168.031,38.087,-361.813,-333.523,-873.500,180.760,111.780
237,49022.906000,-30.837,-10.119,-170.996,25.323,-358.796,-332.316,-947.500,132.760,108.780
238,49022.944000,-35.732,-1.012,-163.089,16.680,-357.739,-342.009,-983.500,161.760,137.780
239,49022.962000,-36.711,12.142,-163.089,6.833,-350.878,-341.842,-1083.500,290.760,233.780
240,49022.966000,-23.985,29.344,-167.042,-10.685,-349.744,-347.441,-1197.500,328.760,287.780
241,49022.983000,-23.985,53.628,-160.124,-35.227,-342.751,-346.030,-1290.500,204.760,322.780
242,49023.4000,-21.048,57.676,-176.927,-43.981,-342.668,-348.829,-1431.500,148.760,364.780
243,49023.25000,1.468,79.937,-188.788,-67.413,-340.516,-352.354,-1588.500,169.760,330.780
244,49023.52000,-13.216,99.162,-185.822,-79.321,-335.579,-345.258,-1695.500,-7.240,208.780
245,49023.75000,-32.795,104.221,-181.869,-105.774,-337.276,-341.835,-1775.500,-216.240,139.780
246,49023.91000,-23.985,119.399,-197.683,-114.720,-335.268,-334.788,-1867.500,-62.240,164.780
247,49023.117000,1.468,154.814,-228.324,-137.320,-334.101,-329.467,-1922.500,56.760,97.780
248,49023.126000,-2.447,186.182,-246.116,-162.996,-329.044,-318.190,-1994.500,22.760,-161.220
249,49023.149000,-20.069,191.241,-229.313,-171.905,-332.841,-310.152,-1963.500,-141.240,-267.220
250,49023.167000,-27.901,192.253,-226.347,-188.687,-329.794,-302.968,-1894.500,48.760,-177.220
251,49023.205000,-8.321,205.407,-240.185,-196.576,-328.759,-299.876,-1810.500,419.760,-71.220
252,49023.232000,25.943,224.632,-239.197,-219.292,-318.887,-292.594,-1710.500,547.760,3.780
253,49023.241000,27.901,234.751,-227.336,-223.248,-321.757,-288.583,-1659.500,292.760,37.780
254,49023.258000,5.384,229.692,-237.220,-242.083,-315.795,-277.428,-1567.500,57.760,152.780
255,49023.274000,-6.363,213.502,-240.185,-258.970,-308.882,-266.308,-1403.500,118.760,341.780
256,49023.297000,-3.426,221.597,-237.220,-268.851,-305.895,-262.199,-1348.500,160.760,389.780
257,49023.316000,-10.279,243.858,-231.290,-285.668,-300.914,-254.032,-1255.500,143.760,372.780
258,49023.334000,-23.006,251.953,-229.313,-285.790,-297.050,-249.112,-1151.500,148.760,308.780
259,49023.359000,-30.837,236.775,-243.151,-301.629,-292.078,-240.962,-1013.500,265.760,283.780
260,49023.383000,-24.964,218.561,-258.965,-304.582,-292.052,-239.925,-877.500,430.760,292.780
261,49023.400000,-16.153,221.597,-284.664,-311.554,-284.254,-236.858,-721.500,350.760,274.780
262,49023.425000,-16.153,234.751,-280.710,-318.466,-279.356,-235.757,-538.500,160.760,142.780
263,49023.440000,-37.690,248.917,-281.699,-321.444,-280.299,-232.749,-329.500,19.760,33.780
264,49023.456000,-46.501,244.870,-301.467,-316.639,-276.477,-229.885,-40.500,77.760,1.780
265,49023.480000,-31.816,240.822,-310.363,-317.434,-283.233,-236.755,105.500,133.760,-10.220
266,49023.497000,-15.174,242.846,-302.456,-313.496,-278.428,-240.768,372.500,109.760,-46.220
267,49023.525000,-14.195,248.917,-294.548,-314.474,-278.419,-240.751,618.500,-59.240,-61.220
268,49023.534000,-19.090,251.953,-286.641,-306.489,-284.289,-246.792,851.500,-183.240,-77.220
269,49023.581000,-23.006,254.988,-290.595,-301.537,-281.426,-251.805,1081.500,-150.240,-75.220
270,49023.595000,-20.069,251.953,-288.618,-283.697,-287.381,-261.958,1329.500,2.760,-36.220
271,49023.605000,-9.300,248.917,-277.745,-276.580,-286.460,-277.836,1538.500,143.760,4.780
272,49023.626000,6.363,242.846,-264.896,-261.730,-284.648,-288.930,1706.500,172.760,42.780
273,49023.643000,15.174,236.775,-257.977,-246.732,-285.731,-306.914,1829.500,92.760,44.780
274,49023.664000,17.132,229.692,-250.069,-236.835,-284.846,-313.982,1876.500,35.760,37.780
275,49023.681000,13.216,219.573,-249.081,-219.915,-287.885,-329.044,1952.500,-68.240,25.780
276,49023.701000,14.195,207.431,-244.139,-200.301,-289.028,-331.359,2022.500,-126.240,26.780
277,49023.729000,12.237,199.336,-231.290,-176.644,-291.168,-340.635,2063.500,-208.240,-5.220
278,49023.751000,6.363,192.253,-225.359,-151.876,-303.956,-351.887,2063.500,-270.240,-39.220
279,49023.770000,-3.426,179.099,-225.359,-134.176,-304.111,-357.123,2075.500,-258.240,-46.220
280,49023.792000,-3.426,163.921,-225.359,-115.446,-308.144,-363.356,2091.500,-167.240,-35.220
281,49023.810000,0.489,149.755,-216.463,-97.842,-307.337,-363.668,2081.500,-126.240,-42.220
282,49023.828000,2.447,132.553,-209.544,-77.153,-315.259,-367.963,2051.500,-184.240,-34.220
283,49023.854000,9.300,114.340,-204.602,-54.577,-319.331,-370.327,2028.500,-229.240,-27.220
284,49023.871000,4.405,101.186,-205.591,-30.105,-324.392,-368.785,1972.500,-319.240,-36.220
285,49023.889000,-2.447,86.008,-203.614,-21.307,-325.441,-367.955,1925.500,-363.240,-46.220
286,49023.911000,-7.342,68.806,-201.637,4.170,-333.413,-366.427,1878.500,-337.240,-56.220
287,49023.934000,-11.258,52.617,-200.649,28.495,-337.515,-357.008,1826.500,-320.240,-66.220
288,49023.956000,-10.279,35.415,-210.533,40.298,-338.587,-360.169,1760.500,-354.240,-93.220
289,49023.976000,-10.279,23.273,-211.521,68.512,-347.565,-346.875,1716.500,-388.240,-158.220
290,49023.999000,-12.237,14.166,-211.521,80.186,-351.547,-341.171,1662.500,-453.240,-198.220
291,49024.27000,-18.111,4.047,-210.533,102.589,-359.501,-331.713,1623.500,-480.240,-220.220
292,49024.46000,-26.922,-4.047,-212.510,110.339,-360.544,-326.927,1616.500,-480.240,-240.220
293,49024.60000,-30.837,-17.202,-205.591,134.491,-362.720,-308.647,1594.500,-408.240,-266.220
294,49024.80000,-35.732,-27.320,-198.672,154.884,-366.787,-298.174,1575.500,-299.240,-266.220
295,49024.102000,-40.627,-38.451,-189.776,170.436,-366.935,-292.542,1553.500,-182.240,-237.220
296,49024.125000,-37.690,-51.605,-186.811,183.010,-368.027,-283.903,1529.500,-60.240,-214.220
297,49024.149000,-35.732,-59.700,-170.996,192.735,-369.087,-280.136,1507.500,52.760,-199.220
298,49024.164000,-36.711,-70.830,-152.216,215.023,-368.336,-268.718,1434.500,172.760,-182.220
299,49024.186000,-33.774,-90.055,-136.402,221.812,-367.434,-265.886,1325.500,246.760,-136.220
300,49024.216000,-24.964,-108.269,-129.483,234.385,-366.590,-258.234,1209.500,207.760,-108.220
301,49024.226000,-17.132,-121.423,-119.598,251.928,-364.818,-255.593,1143.500,152.760,-110.220
302,49024.249000,-13.216,-132.553,-106.749,251.721,-364.830,-243.776,975.500,22.760,-95.220
303,49024.268000,-16.153,-137.613,-101.807,263.402,-363.972,-241.030,812.500,-80.240,-68.220
304,49024.282000,-25.943,-141.660,-85.992,258.362,-364.904,-232.080,666.500,-92.240,-31.220
305,49024.305000,-34.753,-152.791,-71.166,271.040,-367.926,-228.363,495.500,-55.240,21.780
306,49024.327000,-38.669,-158.862,-64.247,266.113,-367.883,-226.307,322.500,16.760,56.780
307,49024.345000,-25.943,-162.909,-43.490,264.156,-367.866,-226.272,124.500,56.760,52.780
308,49024.367000,-30.837,-163.921,-30.641,264.217,-366.894,-230.212,-118.500,59.760,44.780
309,49024.398000,-37.690,-165.945,-37.560,262.294,-366.875,-232.147,-403.500,50.760,44.780
310,49024.408000,-30.837,-157.850,-50.409,261.472,-368.793,-240.006,-534.500,53.760,45.780
311,49024.430000,-23.985,-143.684,-57.328,252.647,-364.842,-240.839,-776.500,73.760,6.780
312,49024.447000,-25.943,-133.565,-69.189,245.044,-364.758,-253.502,-1029.500,29.760,-46.220
313,49024.470000,-27.901,-124.459,-76.108,237.277,-363.716,-257.304,-1247.500,-22.240,-82.220
314,49024.502000,-29.859,-112.316,-88.958,229.673,-361.696,-270.954,-1440.500,25.760,-96.220
315,49024.531000,-20.069,-100.174,-102.795,218.026,-360.616,-276.656,-1610.500,163.760,-56.220
316,49024.535000,-14.195,-80.949,-119.598,196.784,-355.565,-294.991,-1748.500,256.760,-21.220
317,49024.552000,-12.237,-60.711,-133.436,177.472,-349.565,-312.376,-1859.500,323.760,-13.220
318,49024.575000,0.489,-31.368,-140.355,169.799,-349.485,-321.101,-1912.500,384.760,-29.220
319,49024.592000,5.384,-12.142,-172.973,141.610,-335.666,-338.338,-2035.500,489.760,-34.220
320,49024.615000,6.363,-1.012,-205.591,130.007,-337.487,-345.022,-2148.500,362.760,-38.220
321,49024.635000,7.342,8.095,-212.510,104.712,-330.472,-356.396,-2166.500,249.760,-68.220
322,49024.657000,0.489,25.296,-200.649,84.267,-328.344,-362.928,-2187.500,221.760,-93.220
323,49024.677000,-4.405,43.510,-231.290,57.949,-320.354,-372.316,-2279.500,193.760,-73.220
324,49024.700000,8.321,51.605,-249.081,46.294,-322.178,-376.046,-2208.500,147.760,-9.220
325,49024.719000,3.426,77.913,-239.197,16.939,-318.040,-377.500,-2145.500,-21.240,-12.220
326,49024.736000,2.447,106.245,-214.486,-15.517,-312.916,-370.041,-2162.500,34.760,1.780
327,49024.764000,9.300,144.696,-256.988,-34.939,-315.634,-376.585,-2249.500,68.760,-1.220
328,49024.779000,4.405,154.814,-289.606,-63.403,-313.445,-372.146,-2232.500,-148.240,-69.220
329,49024.801000,-10.279,134.577,-261.931,-79.093,-315.240,-368.913,-2094.500,-195.240,-25.220
330,49024.819000,-16.153,129.518,-238.208,-100.768,-310.213,-362.629,-2028.500,6.760,59.780
331,49024.841000,2.447,157.850,-258.965,-111.479,-312.048,-364.406,-2034.500,302.760,125.780
332,49024.864000,18.111,182.134,-264.896,-136.168,-302.159,-356.105,-1935.500,311.760,155.780
333,49024.891000,18.111,197.312,-252.046,-163.776,-294.179,-347.750,-1873.500,75.760,115.780
334,49024.914000,12.237,210.466,-230.301,-182.470,-295.951,-340.526,-1833.500,26.760,125.780
335,49024.926000,1.468,224.632,-236.232,-205.158,-292.853,-331.269,-1792.500,94.760,193.780
336,49024.943000,-5.384,221.597,-251.058,-208.198,-288.961,-327.282,-1718.500,140.760,231.780
337,49024.964000,6.363,216.538,-228.324,-233.865,-284.871,-316.003,-1607.500,234.760,235.780
338,49024.986000,11.258,230.704,-198.672,-235.874,-284.856,-313.014,-1600.500,285.760,93.780
339,49025.4000,21.048,240.822,-198.672,-258.615,-277.889,-302.776,-1588.500,289.760,72.780
340,49025.29000,20.069,226.656,-203.614,-276.410,-274.836,-293.604,-1517.500,235.760,129.780
341,49025.51000,19.090,205.407,-191.753,-286.439,-268.953,-282.605,-1481.500,205.760,178.780
342,49025.76000,20.069,210.466,-210.533,-300.320,-263.999,-274.489,-1469.500,117.760,140.780
343,49025.90000,20.069,237.787,-229.313,-305.369,-263.963,-265.540,-1389.500,47.760,65.780
344,49025.106000,7.342,257.012,-239.197,-318.271,-262.890,-255.468,-1237.500,136.760,61.780
345,49025.126000,-8.321,261.059,-251.058,-323.259,-261.883,-250.459,-1121.500,282.760,87.780
346,49025.147000,1.468,251.953,-260.942,-334.155,-251.146,-248.310,-881.500,575.760,129.780
347,49025.167000,16.153,247.905,-258.965,-335.211,-252.109,-243.368,-667.500,684.760,136.780
348,49025.190000,23.985,252.964,-237.220,-343.093,-242.362,-245.209,-504.500,620.760,134.780
349,49025.207000,23.985,248.917,-256.988,-344.108,-234.612,-247.169,-333.500,434.760,190.780
350,49025.230000,30.837,231.715,-289.606,-340.184,-239.486,-245.263,-104.500,174.760,172.780
351,49025.252000,29.859,236.775,-302.456,-341.189,-238.511,-244.262,94.500,-211.240,69.780
352,49025.275000,15.174,261.059,-335.073,-344.159,-238.486,-242.241,401.500,-465.240,16.780
353,49025.290000,1.468,282.308,-366.703,-341.067,-240.440,-250.169,793.500,-476.240,-29.220
354,49025.310000,-14.195,289.391,-383.506,-329.228,-247.317,-252.339,1018.500,-395.240,-47.220
355,49025.330000,-11.258,293.439,-380.541,-315.235,-247.425,-269.323,1454.500,-96.240,-50.220
356,49025.357000,7.342,310.640,-367.691,-301.174,-245.593,-291.231,1865.500,148.760,0.780
357,49025.385000,35.732,315.700,-344.958,-291.171,-250.509,-301.247,2230.500,212.760,119.780
358,49025.399000,56.291,315.700,-317.282,-263.377,-246.864,-326.355,2493.500,119.760,202.780
359,49025.436000,67.059,310.640,-290.595,-251.454,-244.057,-338.382,2673.500,-31.240,239.780
360,49025.436000,63.143,297.486,-265.884,-220.757,-246.248,-358.612,2799.500,-131.240,263.780
361,49025.456000,55.312,283.320,-242.162,-199.021,-250.304,-368.836,2882.500,-101.240,319.780
362,49025.476000,55.312,270.166,-225.359,-164.506,-249.632,-385.199,2927.500,-74.240,379.780
363,49025.490000,62.164,250.941,-205.591,-125.159,-249.977,-397.708,2921.500,-103.240,390.780
364,49025.515000,64.122,229.692,-196.695,-115.268,-257.803,-399.843,2884.500,-299.240,381.780
365,49025.537000,53.354,203.383,-186.811,-76.958,-264.917,-405.435,2829.500,-486.240,324.780
366,49025.564000,32.795,181.123,-178.903,-61.215,-268.926,-408.662,2767.500,-497.240,276.780
367,49025.582000,20.069,157.850,-170.996,-19.138,-275.116,-406.446,2712.500,-372.240,275.780
368,49025.605000,13.216,133.565,-164.077,-1.481,-280.113,-406.752,2649.500,-277.240,307.780
369,49025.621000,13.216,108.269,-156.170,32.708,-287.203,-400.458,2556.500,-243.240,318.780
370,49025.642000,16.153,79.937,-149.251,48.347,-289.282,-398.763,2421.500,-292.240,292.780
371,49025.660000,15.174,55.652,-149.251,75.634,-298.249,-388.406,2283.500,-414.240,253.780
372,49025.684000,11.258,32.379,-146.286,104.870,-306.265,-378.085,2222.500,-465.240,226.780
373,49025.706000,3.426,8.095,-141.344,122.311,-312.243,-365.589,2079.500,-553.240,162.780
374,49025.726000,-3.426,-12.142,-147.274,149.573,-322.178,-353.262,1953.500,-588.240,115.780
375,49025.761000,-6.363,-50.593,-154.193,154.337,-327.070,-343.496,1843.500,-656.240,53.780
376,49025.789000,-11.258,-60.711,-157.158,183.487,-337.027,-327.264,1740.500,-722.240,-39.220
377,49025.789000,-20.069,-67.794,-163.089,191.160,-340.979,-316.566,1632.500,-724.240,-133.220
378,49025.801000,-32.795,-77.913,-161.112,209.425,-352.781,-292.264,1580.500,-629.240,-180.220
379,49025.832000,-38.669,-92.079,-148.263,226.848,-352.952,-281.743,1549.500,-371.240,-184.220
380,49025.855000,-24.964,-102.198,-130.471,239.387,-354.046,-271.135,1506.500,-35.240,-153.220
381,49025.870000,-11.258,-118.387,-118.610,259.780,-358.113,-260.662,1468.500,54.760,-125.220
382,49025.897000,-4.405,-135.589,-107.737,253.778,-353.227,-255.639,1375.500,44.760,-78.220
383,49025.912000,-4.405,-150.767,-97.853,269.209,-351.447,-244.101,1250.500,-39.240,-26.220
384,49025.930000,-6.363,-153.802,-93.900,279.852,-355.423,-235.424,1091.500,-155.240,24.780
385,49025.957000,-15.174,-164.933,-75.120,287.534,-358.406,-225.712,949.500,-226.240,33.780
386,49025.977000,-32.795,-178.087,-50.409,291.240,-358.453,-213.964,778.500,-200.240,62.780
387,49025.992000,-40.627,-186.182,-45.467,292.177,-363.304,-209.053,583.500,-55.240,98.780
388,49026.10000,-26.922,-190.229,-52.386,303.797,-361.482,-203.354,417.500,24.760,98.780
389,49026.33000,-18.111,-190.229,-45.467,298.992,-365.304,-206.218,218.500,3.760,44.780
390,49026.55000,-26.922,-193.265,-37.560,294.973,-361.403,-202.213,99.500,-112.240,15.780
391,49026.77000,-35.732,-193.265,-43.490,299.945,-366.282,-204.265,-137.500,-144.240,-36.220
392,49026.98000,-38.669,-193.265,-44.479,296.074,-365.276,-207.151,-324.500,-105.240,-55.220
393,49026.125000,-36.711,-186.182,-41.514,288.272,-364.236,-208.983,-518.500,-13.240,-53.220
394,49026.163000,-26.922,-171.004,-37.560,292.288,-360.394,-216.934,-729.500,71.760,-76.220
395,49026.171000,-25.943,-150.767,-39.537,283.638,-362.241,-224.654,-951.500,58.760,-115.220
396,49026.180000,-31.816,-141.660,-53.375,281.809,-355.441,-235.459,-1143.500,39.760,-110.220
397,49026.198000,-28.880,-145.708,-56.340,264.369,-353.335,-245.982,-1329.500,125.760,-42.220
398,49026.229000,-17.132,-135.589,-57.328,257.736,-354.228,-257.677,-1552.500,172.760,-24.220
399,49026.240000,-12.237,-103.209,-72.154,241.387,-353.093,-274.125,-1664.500,146.760,-22.220
400,49026.262000,-9.300,-78.925,-89.946,235.663,-352.064,-282.885,-1828.500,35.760,-26.220
401,49026.280000,-10.279,-68.806,-93.900,206.540,-346.944,-298.127,-1970.500,9.760,42.780
402,49026.300000,-21.048,-47.557,-103.784,182.363,-345.738,-314.436,-2127.500,154.760,72.780
403,49026.322000,-24.964,-10.119,-132.448,173.755,-342.743,-327.085,-2245.500,410.760,60.780
404,49026.343000,-10.279,11.130,-160.124,144.666,-331.814,-347.257,-2309.500,700.760,51.780
405,49026.365000,11.258,11.130,-171.985,130.117,-328.769,-355.863,-2421.500,870.760,-3.220
406,49026.381000,27.901,28.332,-201.637,87.250,-312.881,-373.828,-2554.500,828.760,-149.220
407,49026.402000,41.606,54.640,-228.324,71.739,-304.019,-386.362,-2560.500,740.760,-295.220
408,49026.435000,45.522,73.866,-235.243,40.495,-295.988,-393.694,-2534.500,519.760,-319.220
409,49026.450000,35.732,81.960,-244.139,13.250,-287.987,-406.019,-2550.500,390.760,-255.220
410,49026.473000,41.606,99.162,-261.931,-5.402,-286.853,-402.737,-2551.500,272.760,-210.220
411,49026.496000,53.354,114.340,-244.139,-37.684,-283.655,-404.139,-2504.500,50.760,-217.220
412,49026.515000,38.669,138.625,-226.347,-60.337,-282.491,-395.864,-2531.500,-226.240,-221.220
413,49026.529000,19.090,167.968,-250.069,-92.739,-285.107,-387.412,-2553.500,-280.240,-63.220
414,49026.566000,23.985,184.158,-273.792,-105.529,-283.060,-384.234,-2437.500,-102.240,117.780
415,49026.570000,32.795,189.217,-244.139,-144.868,-281.747,-372.711,-2422.500,-96.240,138.780
416,49026.592000,23.006,210.466,-223.382,-162.610,-282.562,-364.520,-2413.500,-126.240,176.780
417,49026.615000,15.174,236.775,-231.290,-195.152,-279.379,-351.150,-2390.500,-96.240,238.780
418,49026.632000,29.859,242.846,-249.081,-223.814,-276.234,-335.880,-2275.500,-21.240,337.780
419,49026.650000,38.669,250.941,-256.988,-236.707,-278.063,-324.821,-2217.500,-166.240,250.780
420,49026.672000,15.174,261.059,-250.069,-262.512,-275.917,-304.678,-2106.500,-291.240,181.780
421,49026.702000,-1.468,260.047,-222.394,-270.496,-273.919,-296.663,-1994.500,-8.240,212.780
422,49026.717000,11.258,263.083,-208.556,-289.435,-266.026,-280.586,-1899.500,325.760,222.780
423,49026.740000,29.859,260.047,-231.290,-305.213,-262.019,-275.389,-1737.500,276.760,209.780
424,49026.760000,42.585,246.893,-223.382,-318.255,-259.018,-258.427,-1703.500,69.760,174.780
425,49026.777000,33.774,259.036,-185.822,-338.154,-256.922,-240.357,-1711.500,30.760,162.780
426,49026.805000,15.174,273.202,-205.591,-342.190,-253.022,-235.368,-1604.500,55.760,195.780
427,49026.825000,6.363,260.047,-242.162,-351.292,-247.151,-221.431,-1381.500,179.760,266.780
428,49026.845000,5.384,249.929,-254.023,-360.264,-242.241,-214.387,-1189.500,238.760,223.780
429,49026.860000,7.342,257.012,-262.919,-368.230,-244.113,-205.384,-998.500,221.760,141.780
430,49026.883000,4.405,270.166,-276.757,-376.162,-240.176,-201.310,-753.500,156.760,61.780
431,49026.905000,-13.216,273.202,-289.606,-380.155,-237.242,-198.290,-459.500,158.760,-10.220
432,49026.926000,-22.027,265.107,-298.502,-376.337,-234.379,-194.423,-152.500,239.760,-72.220
433,49026.937000,-18.111,260.047,-309.375,-373.271,-237.302,-200.380,163.500,209.760,-119.220
434,49026.960000,-1.468,263.083,-311.351,-364.438,-240.284,-200.533,315.500,128.760,-143.220
435,49026.982000,5.384,271.178,-294.548,-372.152,-243.110,-205.315,588.500,-111.240,-183.220
436,49027.3000,0.489,283.320,-291.583,-361.259,-244.169,-212.398,864.500,-294.240,-209.220
437,49027.23000,1.468,287.368,-302.456,-357.189,-246.131,-220.344,1137.500,-319.240,-277.220
438,49027.43000,-2.447,290.403,-318.270,-335.331,-255.988,-234.501,1453.500,-209.240,-353.220
439,49027.65000,-6.363,292.427,-314.317,-329.234,-257.964,-246.420,1791.500,87.760,-309.220
440,49027.87000,4.405,299.510,-285.652,-308.270,-260.063,-269.431,2089.500,416.760,-165.220
441,49027.105000,22.027,295.462,-256.988,-290.252,-255.361,-295.351,2285.500,568.760,14.780
442,49027.132000,72.933,285.344,-253.035,-278.270,-249.647,-312.305,2398.500,409.760,86.780
443,49027.166000,76.849,277.249,-256.988,-251.504,-251.803,-331.481,2442.500,232.760,69.780
444,49027.166000,62.164,279.273,-264.896,-234.670,-252.911,-342.607,2497.500,-99.240,-4.220
445,49027.204000,53.354,270.166,-262.919,-202.040,-261.897,-357.940,2608.500,-238.240,-60.220
446,49027.207000,56.291,259.036,-243.151,-188.186,-262.013,-367.045,2733.500,-174.240,-7.220
447,49027.227000,51.396,242.846,-225.359,-152.647,-268.123,-382.434,2834.500,-127.240,94.780
448,49027.250000,45.522,226.656,-215.475,-113.273,-271.369,-394.940,2885.500,-56.240,222.780
449,49027.272000,46.501,205.407,-200.649,-96.569,-271.516,-399.173,2913.500,29.760,361.780
450,49027.290000,48.459,178.087,-184.834,-60.184,-270.868,-410.647,2889.500,16.760,476.780
451,49027.308000,51.396,146.719,-178.903,-35.781,-273.997,-406.152,2805.500,-126.240,547.780
452,49027.334000,47.480,123.447,-173.961,0.486,-283.034,-405.799,2753.500,-241.240,543.780
453,49027.358000,29.859,100.174,-166.054,8.209,-281.175,-401.016,2643.500,-508.240,473.780
454,49027.380000,14.195,77.913,-157.158,45.395,-295.064,-394.766,2533.500,-650.240,387.780
455,49027.395000,13.216,55.652,-162.100,68.745,-310.771,-379.410,2414.500,-693.240,328.780
456,49027.412000,19.090,31.368,-158.147,88.264,-314.824,-374.828,2314.500,-763.240,278.780
457,49027.440000,13.216,5.059,-142.332,113.501,-330.553,-355.567,2190.500,-980.240,228.780
458,49027.456000,-1.468,-15.178,-127.506,129.991,-341.359,-342.064,2038.500,-1187.240,176.780
459,49027.477000,-25.943,-33.391,-119.598,151.263,-358.992,-318.793,1900.500,-1224.240,108.780
460,49027.499000,-47.480,-50.593,-113.668,158.867,-364.883,-303.169,1787.500,-1027.240,61.780
461,49027.517000,-60.207,-63.747,-113.668,178.223,-373.784,-286.765,1734.500,-873.240,42.780
462,49027.541000,-66.080,-76.901,-102.795,186.910,-379.678,-277.068,1655.500,-479.240,23.780
463,49027.558000,-60.207,-94.103,-97.853,203.345,-380.809,-265.544,1524.500,-72.240,15.780
464,49027.578000,-44.543,-108.269,-101.807,216.845,-379.977,-254.954,1367.500,171.760,11.780
465,49027.599000,-40.627,-125.470,-99.830,217.807,-381.922,-253.000,1224.500,170.760,-18.220
466,49027.621000,-40.627,-138.625,-92.911,229.348,-377.201,-244.350,1065.500,130.760,-26.220
467,49027.639000,-38.669,-142.672,-83.027,233.306,-380.138,-245.401,887.500,138.760,-54.220
468,49027.664000,-39.648,-150.767,-85.992,242.874,-375.399,-235.731,710.500,41.760,-52.220
469,49027.681000,-41.606,-160.885,-79.073,253.646,-378.400,-234.934,575.500,-17.240,-65.220
470,49027.705000,-52.375,-167.968,-63.259,252.590,-379.364,-229.992,486.500,-2.240,-75.220
471,49027.725000,-48.459,-172.016,-65.236,254.555,-376.477,-231.999,286.500,134.760,-59.220
472,49027.740000,-33.774,-180.111,-68.201,258.416,-370.709,-232.074,108.500,208.760,-41.220
473,49027.761000,-26.922,-183.146,-74.131,250.588,-370.637,-231.935,-77.500,29.760,-79.220
474,49027.789000,-29.859,-181.123,-70.178,255.551,-374.550,-233.988,-279.500,-166.240,-103.220
475,49027.801000,-29.859,-178.087,-76.108,246.744,-374.469,-233.832,-485.500,-272.240,-109.220
476,49027.824000,-31.816,-169.992,-84.015,246.770,-375.436,-234.816,-670.500,-331.240,-156.220
477,49027.844000,-38.669,-156.838,-89.946,241.948,-377.323,-237.681,-814.500,-288.240,-192.220
478,49027.871000,-47.480,-142.672,-89.946,239.107,-374.388,-244.526,-954.500,-85.240,-202.220
479,49027.891000,-47.480,-135.589,-98.842,234.265,-370.469,-249.367,-1022.500,52.760,-176.220
480,49027.911000,-26.922,-131.542,-113.668,223.708,-364.552,-263.954,-1140.500,307.760,-106.220
481,49027.931000,-8.321,-123.447,-119.598,223.864,-366.479,-271.830,-1254.500,346.760,-110.220
482,49027.959000,-18.111,-101.186,-113.668,209.470,-359.554,-291.273,-1358.500,278.760,-124.220
483,49027.985000,-21.048,-87.020,-116.633,194.835,-354.579,-295.942,-1494.500,336.760,-35.220
484,49028.2000,-6.363,-87.020,-138.378,179.386,-350.553,-309.455,-1618.500,374.760,39.780
485,49028.16000,7.342,-72.854,-150.239,173.644,-349.524,-317.231,-1744.500,248.760,24.780
486,49028.34000,-4.405,-49.581,-162.100,146.401,-345.395,-327.583,-1833.500,122.760,-16.220
487,49028.51000,-17.132,-34.403,-176.927,125.099,-343.251,-340.991,-1892.500,182.760,5.780
488,49028.84000,-17.132,-25.296,-181.869,115.382,-339.286,-346.730,-1931.500,254.760,8.780
489,49028.95000,-14.195,-7.083,-202.625,84.260,-335.119,-358.982,-2015.500,297.760,-20.220
490,49028.121000,-1.468,10.119,-231.290,67.659,-333.030,-361.644,-2016.500,167.760,-33.220
491,49028.140000,6.363,26.308,-233.266,44.287,-329.907,-369.110,-1990.500,7.760,-37.220
492,49028.154000,-0.489,40.474,-225.359,34.485,-327.883,-368.939,-2052.500,-60.240,16.780
493,49028.177000,-5.384,62.735,-251.058,9.104,-324.745,-373.416,-1966.500,-82.240,24.780
494,49028.198000,-6.363,66.783,-235.243,-18.337,-325.466,-369.976,-1959.500,-42.240,-9.220
495,49028.215000,-17.132,89.043,-217.452,-34.955,-323.378,-371.653,-1983.500,277.760,-0.220
496,49028.236000,-13.216,112.316,-222.394,-66.330,-312.450,-373.080,-2008.500,450.760,110.780
497,49028.257000,-2.447,134.577,-251.058,-78.073,-308.471,-374.846,-1939.500,656.760,132.780
498,49028.280000,25.943,124.459,-230.301,-101.602,-299.549,-376.409,-1916.500,600.760,217.780
499,49028.305000,38.669,124.459,-198.672,-114.392,-295.566,-374.218,-2032.500,403.760,191.780
500,49028.332000,39.648,148.743,-205.591,-147.774,-292.366,-368.709,-2166.500,139.760,115.780
501,49028.346000,29.859,179.099,-248.093,-164.721,-290.297,-351.676,-2045.500,-102.240,86.780
502,49028.374000,29.859,176.063,-227.336,-192.223,-288.117,-346.270,-2088.500,-196.240,81.780
503,49028.387000,30.837,190.229,-203.614,-215.005,-285.993,-331.102,-2188.500,-98.240,66.780
504,49028.405000,16.153,231.715,-228.324,-225.838,-287.834,-325.986,-2078.500,23.760,-8.220
505,49028.422000,6.363,240.822,-239.197,-245.721,-279.931,-311.861,-1990.500,102.760,80.780
506,49028.450000,22.027,224.632,-219.429,-262.424,-281.719,-306.642,-1890.500,290.760,86.780
507,49028.477000,35.732,234.751,-198.672,-277.458,-272.895,-290.635,-1884.500,325.760,65.780
508,49028.485000,24.964,253.976,-226.347,-287.320,-275.714,-284.550,-1726.500,238.760,152.780
509,49028.507000,23.006,251.953,-208.556,-301.315,-267.863,-271.514,-1595.500,289.760,217.780
510,49028.525000,17.132,275.225,-191.753,-321.156,-257.053,-261.331,-1559.500,364.760,149.780
511,49028.547000,10.279,272.190,-218.440,-323.269,-257.044,-252.433,-1447.500,418.760,209.780
512,49028.567000,23.006,240.822,-245.127,-336.215,-251.134,-242.367,-1212.500,353.760,311.780
513,49028.585000,37.690,239.810,-227.336,-345.135,-246.221,-238.277,-1105.500,129.760,272.780
514,49028.610000,16.153,261.059,-220.417,-356.142,-244.201,-225.287,-1090.500,-42.240,206.780
515,49028.635000,-11.258,267.130,-226.347,-358.168,-244.187,-221.313,-987.500,-221.240,206.780
516,49028.659000,-17.132,257.012,-242.162,-367.200,-240.248,-210.329,-806.500,-3.240,248.780
517,49028.673000,-6.363,233.739,-261.931,-377.064,-235.324,-208.191,-565.500,192.760,211.780
518,49028.695000,8.321,222.609,-251.058,-363.426,-236.420,-204.493,-368.500,281.760,213.780
519,49028.732000,7.342,236.775,-265.884,-375.195,-231.475,-205.275,-225.500,139.760,94.780
520,49028.761000,8.321,249.929,-279.722,-373.264,-228.590,-205.313,9.500,-10.240,-24.220
521,49028.764000,4.405,257.012,-288.618,-372.224,-233.435,-206.310,262.500,-127.240,-139.220
522,49028.781000,6.363,256.000,-294.548,-371.184,-238.280,-207.307,551.500,-180.240,-212.220
523,49028.791000,10.279,262.071,-302.456,-362.247,-239.321,-214.355,680.500,-189.240,-228.220
524,49028.805000,11.258,273.202,-308.386,-358.264,-239.353,-218.364,963.500,-278.240,-251.220
525,49028.838000,9.300,286.356,-301.467,-351.110,-248.109,-231.278,1242.500,-348.240,-294.220
526,49028.855000,-1.468,293.439,-299.490,-327.260,-257.981,-247.439,1518.500,-336.240,-336.220
527,49028.878000,0.489,299.510,-307.398,-323.207,-259.944,-254.400,1801.500,-144.240,-297.220
528,49028.897000,17.132,299.510,-294.548,-304.208,-264.930,-275.404,2087.500,93.760,-239.220
529,49028.917000,31.816,309.628,-272.803,-286.379,-264.110,-288.518,2282.500,229.760,-195.220
530,49028.940000,39.648,309.628,-255.012,-264.403,-264.280,-314.503,2451.500,271.760,-109.220
531,49028.975000,47.480,290.403,-246.116,-251.510,-262.451,-325.562,2586.500,266.760,16.780
532,49028.991000,63.143,274.213,-240.185,-225.679,-265.564,-346.689,2628.500,234.760,50.780
533,49029.10000,69.996,256.000,-235.243,-195.051,-267.759,-362.979,2666.500,-7.240,87.780
534,49029.25000,57.270,233.739,-235.243,-167.496,-271.871,-370.353,2686.500,-384.240,95.780
535,49029.47000,37.690,218.561,-234.255,-133.048,-280.882,-377.843,2711.500,-632.240,44.780
536,49029.65000,19.090,208.443,-235.243,-120.178,-291.636,-381.012,2742.500,-628.240,-31.220
537,49029.85000,6.363,195.289,-235.243,-74.119,-295.922,-383.791,2812.500,-429.240,-51.220
538,49029.102000,12.237,179.099,-222.394,-59.336,-299.921,-387.985,2861.500,-133.240,-29.220
539,49029.125000,23.985,161.897,-203.614,-19.140,-301.249,-392.633,2857.500,58.760,-0.220
540,49029.146000,21.048,140.648,-190.764,20.909,-301.618,-389.403,2825.500,122.760,75.780
541,49029.167000,21.048,113.328,-173.961,38.548,-304.680,-389.711,2803.500,153.760,137.780
542,49029.190000,26.922,83.984,-163.089,75.662,-305.022,-386.430,2724.500,194.760,255.780
543,49029.207000,29.859,60.711,-158.147,85.404,-306.082,-383.648,2603.500,84.760,300.780
544,49029.227000,31.816,32.379,-151.228,120.406,-310.286,-369.495,2485.500,-178.240,295.780
545,49029.245000,23.985,5.059,-137.390,139.925,-316.274,-363.927,2337.500,-503.240,229.780
546,49029.267000,5.384,-13.154,-126.517,162.156,-328.109,-342.648,2187.500,-693.240,139.780
547,49029.290000,-9.300,-35.415,-123.552,178.680,-335.042,-333.088,2050.500,-724.240,107.780
548,49029.313000,-17.132,-56.664,-113.668,194.053,-343.912,-312.676,1939.500,-659.240,92.780
549,49029.342000,-24.964,-70.830,-104.772,215.271,-353.804,-290.397,1796.500,-611.240,78.780
550,49029.361000,-31.816,-83.984,-99.830,223.922,-357.764,-279.717,1732.500,-558.240,78.780
551,49029.384000,-32.795,-100.174,-89.946,235.362,-360.792,-261.211,1596.500,-446.240,77.780
552,49029.398000,-39.648,-117.375,-78.085,247.011,-367.679,-252.549,1438.500,-350.240,47.780
553,49029.411000,-44.543,-135.589,-74.131,256.553,-367.782,-238.935,1291.500,-234.240,35.780
554,49029.429000,-45.522,-150.767,-68.201,260.390,-368.790,-234.080,1124.500,-82.240,42.780
555,49029.451000,-39.648,-159.874,-65.236,266.097,-371.756,-223.348,945.500,40.760,26.780
556,49029.474000,-28.880,-172.016,-62.270,279.727,-373.820,-218.665,757.500,7.760,12.780
557,49029.491000,-26.922,-181.123,-64.247,278.583,-370.917,-210.772,578.500,-100.240,-21.220
558,49029.514000,-36.711,-184.158,-52.386,281.423,-368.045,-206.888,381.500,-87.240,-2.220
559,49029.536000,-44.543,-188.206,-55.351,279.502,-373.833,-205.863,284.500,-56.240,34.780
560,49029.559000,-34.753,-191.241,-57.328,285.400,-376.788,-205.964,118.500,2.760,48.780
561,49029.584000,-32.795,-185.170,-51.398,278.541,-373.823,-206.830,-54.500,-62.240,32.780
562,49029.602000,-39.648,-189.217,-61.282,277.597,-373.812,-208.783,-222.500,-42.240,51.780
563,49029.617000,-33.774,-191.241,-67.212,277.683,-369.936,-215.680,-393.500,37.760,19.780
564,49029.658000,-26.922,-188.206,-76.108,277.700,-371.870,-215.678,-571.500,17.760,-57.220
565,49029.676000,-23.006,-176.063,-84.015,272.955,-372.786,-223.469,-719.500,-22.240,-120.220
566,49029.690000,-32.795,-168.980,-83.027,265.205,-371.742,-228.255,-858.500,82.760,-128.220
567,49029.705000,-35.732,-165.945,-86.981,260.467,-365.882,-239.991,-985.500,201.760,-87.220
568,49029.730000,-20.069,-151.779,-91.923,252.724,-361.934,-246.750,-1037.500,416.760,-91.220
569,49029.745000,-19.090,-129.518,-97.853,244.246,-357.964,-267.278,-1118.500,515.760,-81.220
570,49029.767000,-33.774,-119.399,-99.830,238.469,-353.066,-275.057,-1223.500,754.760,-12.220
571,49029.780000,-26.922,-123.447,-95.876,228.040,-342.302,-299.497,-1371.500,1068.760,32.780
572,49029.794000,-5.384,-120.411,-102.795,207.678,-328.554,-316.873,-1586.500,1048.760,-7.220
573,49029.819000,21.048,-94.103,-146.286,193.242,-324.535,-332.374,-1662.500,742.760,-99.220
574,49029.841000,29.859,-79.937,-136.402,173.859,-310.796,-349.767,-1812.500,382.760,-210.220
575,49029.864000,18.111,-63.747,-125.529,167.192,-311.691,-359.492,-1982.500,257.760,-153.220
576,49029.895000,-0.489,-43.510,-153.205,138.969,-303.681,-371.800,-2027.500,254.760,-91.220
577,49029.901000,26.922,-17.202,-168.031,133.219,-303.621,-378.590,-2036.500,359.760,-86.220
578,49029.926000,31.816,10.119,-165.066,95.177,-295.524,-388.755,-2165.500,311.760,-159.220
579,49029.943000,20.069,42.498,-213.498,63.934,-293.300,-393.127,-2313.500,132.760,-196.220
580,49029.970000,11.258,37.439,-218.440,47.402,-287.335,-401.702,-2302.500,-52.240,-144.220
581,49029.990000,15.174,40.474,-188.788,16.143,-288.984,-403.116,-2303.500,-15.240,-132.220
582,49030.7000,23.006,86.008,-201.637,4.400,-285.005,-404.882,-2442.500,183.760,-212.220
583,49030.32000,19.090,122.435,-239.197,-27.856,-282.774,-407.267,-2433.500,171.760,-292.220
584,49030.50000,22.027,111.304,-225.359,-42.613,-277.805,-405.043,-2342.500,254.760,-229.220
585,49030.67000,30.837,109.281,-195.707,-79.010,-265.872,-399.490,-2367.500,319.760,-181.220
586,49030.89000,42.585,145.708,-205.591,-117.164,-260.685,-401.775,-2498.500,504.760,-179.220
587,49030.106000,54.333,189.217,-236.232,-129.018,-259.617,-395.660,-2591.500,371.760,-174.220
588,49030.120000,59.228,201.360,-221.405,-165.475,-254.462,-383.207,-2533.500,141.760,-188.220
589,49030.152000,62.164,221.597,-208.556,-183.200,-255.277,-376.001,-2585.500,-77.240,-230.220
590,49030.170000,54.333,258.024,-236.232,-215.731,-260.804,-358.684,-2632.500,-226.240,-218.220
591,49030.192000,33.774,271.178,-263.907,-224.745,-260.736,-346.711,-2464.500,-333.240,-157.220
592,49030.210000,25.943,264.095,-250.069,-255.372,-260.476,-329.434,-2279.500,-173.240,-44.220
593,49030.234000,51.396,280.285,-227.336,-258.480,-264.331,-317.561,-2231.500,61.760,-5.220
594,49030.250000,59.228,300.522,-238.208,-280.389,-256.414,-299.462,-2200.500,49.760,8.780
595,49030.270000,32.795,269.154,-237.220,-307.172,-256.194,-278.315,-1975.500,-114.240,67.780
596,49030.297000,25.943,249.929,-210.533,-319.113,-253.195,-268.263,-1837.500,-24.240,237.780
597,49030.321000,37.690,258.024,-183.846,-338.953,-246.256,-256.106,-1809.500,233.760,282.780
598,49030.344000,47.480,260.047,-195.707,-344.079,-245.257,-243.219,-1772.500,233.760,285.780
599,49030.361000,40.627,257.012,-206.579,-363.053,-237.367,-225.172,-1640.500,-27.240,192.780
600,49030.384000,17.132,258.024,-181.869,-363.157,-239.308,-218.277,-1527.500,-109.240,82.780
601,49030.404000,9.300,268.142,-184.834,-377.193,-238.235,-199.325,-1434.500,69.760,90.780
602,49030.421000,15.174,267.130,-202.625,-386.243,-232.361,-188.343,-1296.500,305.760,113.780
603,49030.454000,20.069,266.119,-240.185,-390.278,-234.268,-180.394,-1190.500,307.760,121.780
604,49030.483000,11.258,261.059,-267.861,-397.390,-222.606,-171.422,-920.500,147.760,136.780
605,49030.491000,15.174,267.130,-289.606,-391.500,-230.401,-168.563,-676.500,-23.240,140.780
606,49030.509000,11.258,292.427,-330.131,-392.625,-229.433,-160.669,-348.500,-290.240,27.780
607,49030.529000,-13.216,294.451,-352.865,-393.603,-233.295,-158.678,76.500,-546.240,-146.220
608,49030.545000,-38.669,289.391,-356.819,-391.584,-240.085,-158.706,497.500,-564.240,-310.220
609,49030.571000,-45.522,294.451,-351.876,-393.271,-246.827,-170.482,922.500,-294.240,-464.220
610,49030.591000,-34.753,307.605,-335.073,-383.321,-247.875,-179.517,1320.500,34.760,-476.220
611,49030.606000,-17.132,318.735,-315.305,-358.381,-256.781,-202.590,1669.500,216.760,-404.220
612,49030.629000,9.300,322.783,-306.409,-356.268,-256.790,-211.487,1826.500,220.760,-370.220
613,49030.651000,29.859,331.889,-293.560,-334.282,-259.864,-236.484,2093.500,116.760,-335.220
614,49030.678000,39.648,343.020,-281.699,-330.108,-261.821,-250.338,2318.500,-60.240,-334.220
615,49030.687000,30.837,336.949,-272.803,-304.224,-268.803,-272.446,2550.500,-175.240,-302.220
616,49030.711000,25.943,325.818,-261.931,-284.377,-272.836,-286.574,2744.500,-88.240,-235.220
617,49030.732000,29.859,326.830,-248.093,-255.593,-275.975,-308.738,2905.500,86.760,-164.220
618,49030.758000,35.732,320.759,-232.278,-219.900,-276.269,-335.949,3040.500,209.760,-96.220
619,49030.776000,39.648,301.534,-216.463,-197.161,-277.429,-349.148,3093.500,245.760,-45.220
620,49030.799000,39.648,283.320,-210.533,-161.607,-275.795,-369.468,3128.500,264.760,6.780
621,49030.826000,40.627,265.107,-196.695,-145.805,-273.025,-379.596,3120.500,278.760,45.780
622,49030.854000,40.627,245.881,-186.811,-100.586,-275.358,-391.222,3091.500,274.760,104.780
623,49030.883000,45.522,221.597,-177.915,-81.883,-274.553,-398.445,3045.500,187.760,203.780
624,49030.885000,36.711,195.289,-166.054,-38.690,-278.808,-405.111,2967.500,56.760,261.780
625,49030.902000,29.859,160.885,-159.135,1.533,-281.103,-410.742,2870.500,18.760,330.780
626,49030.918000,28.880,133.565,-157.158,11.230,-277.325,-407.965,2758.500,-40.240,346.780
627,49030.940000,28.880,106.245,-161.112,55.170,-290.314,-396.914,2642.500,-188.240,348.780
628,49030.971000,28.880,80.949,-165.066,70.852,-289.487,-399.161,2533.500,-356.240,314.780
629,49030.978000,22.027,56.664,-164.077,100.045,-300.410,-384.898,2426.500,-476.240,244.780
630,49031.5000,8.321,36.427,-158.147,118.613,-309.291,-379.309,2373.500,-514.240,213.780
631,49031.25000,-1.468,20.237,-153.205,143.813,-315.344,-363.012,2288.500,-492.240,191.780
632,49031.40000,-0.489,2.024,-142.332,155.417,-317.394,-354.355,2207.500,-418.240,202.780
633,49031.62000,-1.468,-20.237,-128.494,178.678,-327.299,-337.035,2093.500,-418.240,186.780
634,49031.80000,-10.279,-44.522,-125.529,201.948,-336.236,-320.700,1979.500,-404.240,198.780
635,49031.108000,-14.195,-66.783,-107.737,215.422,-336.373,-308.141,1839.500,-249.240,202.780
636,49031.130000,-13.216,-84.996,-90.934,229.997,-344.255,-298.545,1642.500,-147.240,180.780
637,49031.145000,4.405,-105.233,-88.958,232.742,-342.357,-288.751,1436.500,-265.240,139.780
638,49031.167000,30.837,-125.470,-93.900,246.245,-353.140,-272.242,1213.500,-454.240,-13.220
639,49031.185000,26.922,-140.648,-86.981,252.861,-354.183,-258.575,1105.500,-949.240,-84.220
640,49031.207000,-15.174,-152.791,-78.085,261.376,-365.894,-236.070,936.500,-1105.240,-84.220
641,49031.240000,-47.480,-162.909,-69.189,270.963,-370.834,-222.451,818.500,-805.240,34.780
642,49031.259000,-56.291,-172.016,-59.305,271.866,-377.622,-214.584,720.500,-402.240,164.780
643,49031.273000,-55.312,-181.123,-45.467,273.737,-379.581,-208.708,558.500,-146.240,239.780
644,49031.295000,-56.291,-185.170,-39.537,272.732,-380.541,-206.720,385.500,-28.240,227.780
645,49031.315000,-62.164,-187.194,-36.571,272.680,-380.544,-203.766,190.500,116.760,186.780
646,49031.337000,-53.354,-196.300,-29.653,275.695,-383.470,-206.769,-22.500,227.760,134.780
647,49031.357000,-40.627,-199.336,-37.560,270.817,-373.746,-212.601,-280.500,232.760,39.780
648,49031.375000,-37.690,-190.229,-47.444,269.952,-378.570,-216.517,-404.500,119.760,-18.220
649,49031.392000,-47.480,-171.004,-47.444,260.280,-379.443,-222.252,-626.500,-27.240,-140.220
650,49031.415000,-46.501,-158.862,-50.409,253.481,-373.570,-228.045,-846.500,13.760,-191.220
651,49031.439000,-30.837,-150.767,-66.224,254.554,-370.670,-234.959,-1052.500,158.760,-213.220
652,49031.461000,-16.153,-139.636,-75.120,244.914,-363.798,-246.610,-1224.500,154.760,-260.220
653,49031.487000,-25.943,-125.470,-72.154,245.149,-366.688,-258.424,-1390.500,153.760,-286.220
654,49031.505000,-22.027,-104.221,-79.073,232.652,-360.752,-273.961,-1571.500,365.760,-224.220
655,49031.524000,-2.447,-86.008,-100.819,220.051,-356.758,-282.603,-1701.500,480.760,-137.220
656,49031.533000,8.321,-73.866,-95.876,200.730,-345.919,-301.963,-1763.500,479.760,-132.220
657,49031.560000,8.321,-62.735,-100.819,177.521,-337.947,-321.251,-1956.500,377.760,-126.220
658,49031.575000,9.300,-46.545,-149.251,173.745,-337.904,-329.060,-2169.500,276.760,-39.220
659,49031.603000,14.195,-25.296,-168.031,142.640,-333.736,-342.296,-2267.500,174.760,-14.220
660,49031.629000,-0.489,12.142,-164.077,133.036,-332.669,-352.957,-2343.500,46.760,-70.220
661,49031.633000,-5.384,37.439,-187.799,93.982,-326.501,-360.149,-2440.500,114.760,-46.220
662,49031.660000,8.321,49.581,-218.440,77.469,-326.342,-366.748,-2447.500,243.760,66.780
663,49031.682000,0.489,48.569,-200.649,43.306,-320.219,-374.026,-2408.500,291.760,22.780
664,49031.705000,-3.426,65.771,-193.730,8.208,-311.180,-385.229,-2453.500,431.760,3.780
665,49031.730000,29.859,100.174,-216.463,-3.508,-308.168,-387.979,-2482.500,601.760,20.780
666,49031.745000,53.354,143.684,-263.907,-40.651,-297.181,-395.210,-2567.500,571.760,-52.220
667,49031.754000,43.564,143.684,-249.081,-57.425,-291.230,-389.998,-2460.500,143.760,-173.220
668,49031.781000,15.174,139.636,-210.533,-88.796,-295.788,-383.531,-2481.500,-117.240,-93.220
669,49031.804000,13.216,169.992,-208.556,-102.643,-290.833,-377.385,-2582.500,139.760,36.780
670,49031.826000,30.837,218.561,-269.838,-144.814,-289.488,-371.718,-2547.500,131.760,120.780
671,49031.846000,38.669,213.502,-256.000,-177.390,-288.242,-355.392,-2390.500,-192.240,196.780
672,49031.879000,23.006,215.526,-215.475,-191.226,-291.997,-345.298,-2451.500,-457.240,194.780
673,49031.898000,10.279,254.988,-204.602,-221.862,-292.706,-327.035,-2526.500,-343.240,182.780
674,49031.906000,11.258,301.534,-228.324,-237.726,-288.704,-316.915,-2479.500,-257.240,198.780
675,49031.929000,10.279,295.462,-218.440,-259.652,-284.659,-295.858,-2285.500,-111.240,246.780
676,49031.960000,8.321,266.119,-193.730,-274.477,-281.630,-288.708,-2197.500,149.760,303.780
677,49031.963000,24.964,269.154,-211.521,-298.291,-275.628,-272.543,-2164.500,385.760,327.780
678,49031.992000,47.480,274.213,-224.371,-311.212,-270.684,-263.460,-2028.500,333.760,303.780
679,49032.10000,37.690,276.237,-221.405,-335.087,-261.781,-245.328,-1924.500,73.760,299.780
680,49032.27000,11.258,266.119,-231.290,-350.129,-255.861,-227.348,-1722.500,84.760,316.780
681,49032.50000,1.468,278.261,-218.440,-355.134,-254.855,-221.354,-1619.500,477.760,290.780
682,49032.73000,-1.468,290.403,-201.637,-368.134,-245.076,-210.307,-1449.500,940.760,284.780
683,49032.81000,25.943,277.249,-234.255,-374.145,-239.223,-205.285,-1348.500,990.760,332.780
684,49032.119000,45.522,257.012,-254.023,-381.161,-230.459,-200.249,-1131.500,799.760,279.780
685,49032.133000,41.606,262.071,-233.266,-388.203,-220.728,-194.229,-1025.500,477.760,213.780
686,49032.165000,23.006,273.202,-256.000,-391.312,-218.776,-185.316,-829.500,180.760,227.780
687,49032.179000,10.279,268.142,-285.652,-396.326,-216.802,-179.323,-524.500,22.760,198.780
688,49032.196000,3.426,267.130,-291.583,-396.344,-214.867,-179.325,-238.500,-154.240,80.780
689,49032.219000,-4.405,264.095,-304.432,-394.369,-218.756,-178.371,76.500,-273.240,-26.220
690,49032.239000,-12.237,270.166,-313.328,-396.325,-220.674,-177.349,385.500,-314.240,-191.220
691,49032.256000,-19.090,286.356,-320.247,-388.340,-228.479,-182.404,759.500,-260.240,-299.220
692,49032.280000,-18.111,293.439,-325.189,-386.200,-231.391,-191.298,954.500,-203.240,-336.220
693,49032.296000,-1.468,300.522,-323.212,-375.132,-240.182,-204.282,1312.500,-141.240,-397.220
694,49032.332000,23.985,309.628,-321.236,-356.194,-244.204,-222.332,1644.500,-183.240,-423.220
695,49032.340000,38.669,326.830,-319.259,-344.147,-253.004,-235.333,1932.500,-313.240,-445.220
696,49032.358000,36.711,340.996,-301.467,-323.173,-259.942,-256.370,2205.500,-285.240,-361.220
697,49032.380000,36.711,343.020,-280.710,-313.233,-258.087,-266.392,2457.500,-82.240,-210.220
698,49032.397000,51.396,339.984,-260.942,-290.233,-261.167,-293.376,2684.500,144.760,-97.220
699,49032.420000,64.122,321.771,-250.069,-267.451,-261.356,-309.530,2862.500,145.760,-56.220
700,49032.434000,72.933,307.605,-242.162,-240.590,-266.411,-332.642,2981.500,-38.240,-20.220
701,49032.456000,67.059,299.510,-239.197,-222.795,-267.529,-342.800,3029.500,-130.240,6.780
702,49032.479000,61.185,289.391,-242.162,-183.265,-272.702,-363.182,3110.500,-174.240,36.780
703,49032.499000,48.459,283.320,-239.197,-136.936,-279.877,-379.745,3196.500,-146.240,11.780
704,49032.526000,29.859,274.213,-226.347,-118.268,-277.138,-385.985,3284.500,-32.240,37.780
705,49032.545000,21.048,253.976,-208.556,-75.951,-275.571,-401.502,3335.500,266.760,171.780
706,49032.568000,27.901,225.644,-180.880,-46.492,-277.768,-406.943,3290.500,524.760,292.780
707,49032.590000,27.901,192.253,-153.205,-6.280,-271.352,-416.522,3162.500,638.760,474.780
708,49032.614000,37.690,159.874,-141.344,9.296,-264.724,-415.821,3033.500,516.760,639.780
709,49032.630000,49.438,126.482,-135.413,43.612,-265.031,-420.366,2874.500,207.760,654.780
710,49032.650000,47.480,95.115,-121.575,84.599,-274.122,-410.251,2776.500,48.760,627.780
711,49032.667000,22.027,43.510,-118.610,98.237,-275.218,-406.553,2580.500,-271.240,609.780
712,49032.685000,5.384,15.178,-109.714,125.473,-284.187,-393.242,2438.500,-482.240,519.780
713,49032.707000,-6.363,-10.119,-110.703,146.907,-295.035,-382.780,2276.500,-484.240,453.780
714,49032.728000,-16.153,-42.498,-109.714,168.194,-301.052,-366.414,2131.500,-417.240,432.780
715,49032.750000,-21.048,-68.806,-100.819,174.975,-306.926,-359.636,1977.500,-325.240,364.780
716,49032.773000,-18.111,-86.008,-101.807,190.373,-310.954,-343.168,1777.500,-218.240,307.780
717,49032.789000,-17.132,-101.186,-113.668,206.740,-315.960,-325.731,1619.500,-229.240,244.780
718,49032.810000,-23.985,-118.387,-109.714,224.363,-320.959,-324.068,1503.500,-306.240,146.780
719,49032.832000,-42.585,-129.518,-91.923,239.733,-322.085,-307.603,1437.500,-277.240,89.780
720,49032.865000,-41.606,-137.613,-78.085,237.778,-327.875,-304.608,1270.500,-67.240,44.780
721,49032.884000,-22.027,-146.719,-58.317,250.342,-326.064,-296.957,1130.500,273.760,73.780
722,49032.911000,-19.090,-156.838,-47.444,263.028,-326.181,-295.213,946.500,390.760,71.780
723,49032.914000,-11.258,-169.992,-49.421,265.875,-320.405,-293.301,744.500,344.760,103.780
724,49032.941000,-6.363,-180.111,-39.537,268.820,-323.335,-292.365,526.500,245.760,98.780
725,49032.964000,-7.342,-189.217,-32.618,272.638,-320.473,-288.498,251.500,72.760,57.780
726,49032.986000,-12.237,-191.241,-43.490,274.631,-324.360,-288.529,-13.500,-168.240,44.780
727,49033.0,-16.153,-191.241,-49.421,270.665,-326.263,-284.519,-232.500,-360.240,-6.220
728,49033.23000,-26.922,-179.099,-51.398,260.889,-327.141,-284.345,-344.500,-392.240,-45.220
729,49033.45000,-26.922,-167.968,-61.282,266.803,-326.225,-287.404,-556.500,-332.240,-99.220
730,49033.54000,-23.985,-161.897,-79.073,259.072,-330.987,-290.215,-729.500,-258.240,-160.220
731,49033.71000,-18.111,-159.874,-94.888,251.269,-326.075,-294.020,-874.500,-194.240,-202.220
732,49033.104000,-10.279,-156.838,-97.853,244.541,-327.942,-299.806,-1021.500,-98.240,-218.220
733,49033.123000,-14.195,-138.625,-97.853,235.007,-326.871,-314.405,-1174.500,-9.240,-228.220
734,49033.155000,-22.027,-121.423,-109.714,230.121,-321.987,-317.278,-1286.500,173.760,-176.220
735,49033.174000,-12.237,-106.245,-123.552,213.770,-313.108,-337.672,-1370.500,457.760,-109.220
736,49033.196000,9.300,-100.174,-130.471,208.895,-311.127,-339.557,-1467.500,546.760,-104.220
737,49033.210000,15.174,-92.079,-133.436,188.665,-304.147,-360.866,-1521.500,502.760,-125.220
738,49033.239000,15.174,-80.949,-145.297,171.067,-296.243,-365.486,-1642.500,385.760,-142.220
739,49033.241000,34.753,-62.735,-153.205,151.730,-291.212,-380.901,-1776.500,337.760,-177.220
740,49033.269000,41.606,-37.439,-161.112,128.366,-285.184,-390.339,-1888.500,134.760,-265.220
741,49033.296000,26.922,-25.296,-179.892,114.727,-286.024,-393.050,-1988.500,-106.240,-276.220
742,49033.312000,13.216,-28.332,-187.799,86.454,-283.825,-399.444,-2031.500,-139.240,-223.220
743,49033.333000,17.132,-13.154,-184.834,73.830,-284.672,-404.141,-2135.500,32.760,-219.220
744,49033.365000,26.922,24.285,-194.718,51.427,-278.654,-412.612,-2202.500,182.760,-290.220
745,49033.369000,23.006,57.676,-234.255,29.838,-273.622,-411.252,-2150.500,98.760,-299.220
746,49033.389000,23.985,51.605,-226.347,0.526,-270.449,-414.675,-2113.500,111.760,-266.220
747,49033.416000,27.901,56.664,-193.730,-6.369,-263.614,-415.545,-2207.500,211.760,-221.220
748,49033.439000,34.753,95.115,-217.452,-43.509,-260.370,-418.830,-2314.500,313.760,-227.220
749,49033.456000,52.375,120.411,-253.035,-72.995,-255.271,-413.392,-2243.500,295.760,-204.220
750,49033.473000,63.143,122.435,-241.174,-91.612,-256.071,-411.092,-2225.500,63.760,-255.220
751,49033.491000,55.312,135.589,-219.429,-119.104,-258.731,-403.712,-2323.500,-179.240,-330.220
752,49033.519000,27.901,177.075,-249.081,-132.958,-260.551,-393.620,-2256.500,-242.240,-248.220
753,49033.534000,18.111,185.170,-255.012,-162.521,-256.424,-383.257,-2117.500,17.760,20.780
754,49033.556000,31.816,179.099,-232.278,-177.277,-255.327,-379.060,-2111.500,164.760,80.780
755,49033.576000,48.459,183.146,-201.637,-203.948,-250.261,-366.780,-2161.500,166.760,80.780
756,49033.606000,50.417,221.597,-222.394,-231.693,-248.096,-347.587,-2195.500,1.760,87.780
757,49033.635000,47.480,223.621,-226.347,-245.452,-248.943,-343.405,-2040.500,18.760,148.780
758,49033.649000,46.501,214.514,-204.602,-274.203,-238.059,-327.158,-2071.500,163.760,100.780
759,49033.657000,51.396,218.561,-198.672,-282.160,-240.899,-318.154,-2075.500,245.760,51.780
760,49033.675000,66.080,227.668,-199.660,-304.060,-233.949,-300.054,-2062.500,157.760,61.780
761,49033.696000,73.912,239.810,-192.741,-318.893,-233.824,-290.932,-2055.500,-52.240,108.780
762,49033.718000,69.996,266.119,-193.730,-333.977,-234.681,-267.037,-1960.500,-245.240,121.780
763,49033.731000,52.375,277.249,-187.799,-353.945,-234.526,-244.041,-1870.500,-342.240,179.780
764,49033.759000,39.648,270.166,-187.799,-359.054,-231.590,-233.125,-1814.500,-325.240,189.780
765,49033.776000,40.627,279.273,-206.579,-376.104,-229.526,-210.184,-1717.500,-356.240,165.780
766,49033.799000,21.048,286.356,-240.185,-376.260,-231.471,-200.334,-1404.500,-379.240,110.780
767,49033.820000,-10.279,276.237,-235.243,-383.377,-232.392,-184.456,-1235.500,-68.240,169.780
768,49033.841000,-23.985,280.285,-257.977,-385.431,-225.604,-182.459,-957.500,395.760,185.780
769,49033.861000,-6.363,279.273,-284.664,-401.227,-219.662,-177.264,-631.500,642.760,143.780
770,49033.879000,11.258,271.178,-292.571,-402.206,-215.781,-179.220,-317.500,571.760,119.780
771,49033.901000,20.069,262.071,-292.571,-397.340,-214.860,-178.323,-44.500,355.760,88.780
772,49033.933000,27.901,265.107,-293.560,-400.242,-210.959,-182.214,239.500,53.760,-1.220
773,49033.959000,21.048,269.154,-298.502,-395.270,-215.839,-184.265,394.500,-75.240,-54.220
774,49033.977000,14.195,267.130,-296.525,-391.156,-218.767,-194.179,682.500,-229.240,-152.220
775,49033.997000,15.174,275.225,-299.490,-378.288,-223.714,-200.307,976.500,-292.240,-266.220
776,49034.5000,19.090,291.415,-304.432,-374.104,-230.509,-212.187,1289.500,-340.240,-336.220
777,49034.25000,22.027,300.522,-295.537,-365.158,-234.453,-218.247,1596.500,-305.240,-371.220
778,49034.48000,28.880,316.711,-280.710,-349.094,-241.348,-238.213,1894.500,-166.240,-364.220
779,49034.75000,40.627,325.818,-268.849,-328.979,-242.463,-269.085,2150.500,35.760,-295.220
780,49034.84000,50.417,316.711,-259.954,-319.029,-245.447,-277.133,2393.500,224.760,-153.220
781,49034.106000,64.122,301.534,-256.000,-296.048,-244.656,-305.106,2583.500,310.760,0.780
782,49034.130000,75.870,291.415,-247.104,-273.310,-241.944,-320.278,2655.500,311.760,55.780
783,49034.154000,76.849,280.285,-238.208,-254.303,-244.026,-343.254,2749.500,223.760,132.780
784,49034.168000,69.996,263.083,-233.266,-225.702,-244.271,-356.558,2818.500,63.760,168.780
785,49034.188000,63.143,240.822,-223.382,-194.026,-244.535,-377.791,2884.500,-61.240,200.780
786,49034.208000,59.228,225.644,-205.591,-159.519,-248.704,-391.195,2891.500,-76.240,240.780
787,49034.244000,57.270,212.490,-197.683,-145.673,-249.788,-399.314,2864.500,-65.240,261.780
788,49034.263000,57.270,189.217,-194.718,-107.322,-248.188,-411.808,2849.500,-171.240,285.780
789,49034.281000,47.480,167.968,-181.869,-83.723,-257.107,-414.184,2793.500,-284.240,270.780
790,49034.299000,37.690,149.755,-178.903,-42.548,-260.379,-417.862,2720.500,-296.240,263.780
791,49034.324000,32.795,125.470,-185.822,-32.710,-264.337,-419.016,2699.500,-270.240,283.780
792,49034.339000,31.816,98.150,-188.788,7.393,-272.446,-414.794,2651.500,-257.240,306.780
793,49034.356000,28.880,72.854,-184.834,42.534,-280.514,-406.546,2589.500,-352.240,269.780
794,49034.379000,18.111,56.664,-177.915,62.114,-285.531,-404.918,2513.500,-409.240,179.780
795,49034.399000,3.426,45.534,-178.903,93.262,-290.665,-393.649,2454.500,-341.240,131.780
796,49034.426000,-3.426,22.261,-166.054,111.864,-295.673,-392.004,2420.500,-137.240,136.780
797,49034.441000,2.447,1.012,-159.135,142.924,-295.004,-378.772,2341.500,78.760,184.780
798,49034.464000,11.258,-19.225,-155.181,155.576,-297.059,-374.071,2253.500,134.760,215.780
799,49034.481000,16.153,-41.486,-147.274,177.900,-300.177,-362.649,2157.500,14.760,242.780
800,49034.518000,16.153,-62.735,-138.378,194.362,-302.274,-352.108,2103.500,-62.240,249.780
801,49034.520000,6.363,-76.901,-119.598,219.614,-306.388,-339.753,1985.500,-168.240,232.780
802,49034.539000,-10.279,-86.008,-103.784,234.085,-314.276,-324.248,1858.500,-193.240,188.780
803,49034.559000,-11.258,-107.257,-87.969,242.719,-314.366,-314.556,1742.500,-71.240,223.780
804,49034.586000,-3.426,-125.470,-71.166,260.125,-318.409,-301.077,1576.500,27.760,243.780
805,49034.604000,6.363,-142.672,-60.293,265.901,-317.500,-296.258,1370.500,-53.240,254.780
806,49034.629000,-1.468,-153.802,-50.409,278.459,-328.272,-281.701,1168.500,-246.240,243.780
807,49034.646000,-21.048,-166.957,-47.444,280.312,-328.296,-275.827,974.500,-317.240,222.780
808,49034.669000,-23.006,-184.158,-41.514,292.870,-333.260,-264.230,775.500,-230.240,198.780
809,49034.706000,-20.069,-190.229,-39.537,291.762,-336.162,-255.347,671.500,-210.240,173.780
810,49034.725000,-19.090,-185.170,-29.653,296.656,-342.014,-252.473,483.500,-169.240,171.780
811,49034.734000,-25.943,-188.206,-20.757,289.815,-340.983,-253.338,305.500,-72.240,232.780
812,49034.748000,-37.690,-206.419,-12.849,293.703,-340.052,-252.423,72.500,121.760,235.780
813,49034.765000,-23.985,-217.549,-23.722,286.993,-345.790,-257.220,-237.500,208.760,141.780
814,49034.788000,-4.405,-205.407,-36.571,290.941,-341.952,-261.232,-491.500,51.760,-10.220
815,49034.810000,-11.258,-193.265,-40.525,279.233,-337.971,-264.967,-711.500,-51.240,-114.220
816,49034.830000,-22.027,-187.194,-44.479,273.526,-336.941,-274.712,-925.500,-2.240,-188.220
817,49034.848000,-12.237,-177.075,-52.386,265.758,-333.963,-279.501,-1133.500,7.760,-274.220
818,49034.870000,-11.258,-153.802,-56.340,251.279,-330.914,-292.046,-1226.500,-21.240,-315.220
819,49034.892000,-18.111,-148.743,-69.189,254.273,-326.098,-298.011,-1397.500,-26.240,-301.220
820,49034.914000,-4.405,-139.636,-82.039,242.791,-325.977,-312.575,-1556.500,63.760,-261.220
821,49034.941000,1.468,-111.304,-79.073,235.110,-324.929,-321.300,-1699.500,83.760,-290.220
822,49034.960000,-9.300,-79.937,-74.131,208.922,-317.901,-337.581,-1873.500,132.760,-266.220
823,49034.987000,-7.342,-66.783,-101.807,187.559,-312.856,-349.022,-1991.500,227.760,-180.220
824,49035.0,10.279,-73.866,-118.610,171.096,-308.824,-360.549,-2140.500,273.760,-192.220
825,49035.18000,6.363,-46.545,-109.714,145.843,-298.903,-375.865,-2291.500,359.760,-309.220
826,49035.38000,-9.300,-8.095,-121.575,134.292,-298.785,-386.490,-2425.500,528.760,-241.220
827,49035.69000,23.006,4.047,-161.112,103.098,-284.943,-399.737,-2468.500,584.760,-196.220
828,49035.78000,65.101,7.083,-179.892,80.696,-284.733,-405.247,-2573.500,271.760,-302.220
829,49035.100000,52.375,33.391,-183.846,48.386,-274.761,-408.625,-2689.500,-198.240,-416.220
830,49035.122000,26.922,64.759,-207.568,27.917,-281.345,-409.240,-2727.500,-264.240,-315.220
831,49035.140000,27.901,77.913,-218.440,-7.335,-278.123,-408.620,-2695.500,-79.240,-222.220
832,49035.160000,33.774,88.032,-210.533,-48.476,-274.848,-406.911,-2725.500,67.760,-214.220
833,49035.183000,22.027,123.447,-208.556,-70.999,-272.708,-406.515,-2737.500,182.760,-151.220
834,49035.206000,23.006,158.862,-225.359,-103.404,-263.710,-403.984,-2712.500,399.760,12.780
835,49035.225000,55.312,173.028,-233.266,-124.091,-259.659,-397.716,-2758.500,368.760,-30.220
836,49035.248000,76.849,190.229,-248.093,-158.564,-257.425,-385.295,-2761.500,143.760,-111.220
837,49035.268000,61.185,203.383,-236.232,-175.293,-260.183,-378.105,-2730.500,-281.240,-153.220
838,49035.285000,39.648,219.573,-227.336,-205.045,-261.874,-353.949,-2741.500,-414.240,-30.220
839,49035.308000,49.438,278.261,-237.220,-245.562,-259.596,-331.577,-2741.500,-335.240,61.780
840,49035.325000,26.922,310.640,-257.977,-259.451,-259.482,-320.503,-2627.500,-507.240,38.780
841,49035.348000,-10.279,294.451,-218.440,-291.194,-265.029,-292.370,-2393.500,-559.240,38.780
842,49035.370000,-2.447,299.510,-217.452,-296.250,-267.898,-281.448,-2363.500,-83.240,99.780
843,49035.396000,36.711,297.486,-234.255,-321.129,-259.955,-261.328,-2210.500,357.760,72.780
844,49035.419000,57.270,293.439,-234.255,-331.061,-258.907,-253.278,-2095.500,234.760,57.780
845,49035.434000,21.048,288.379,-226.347,-348.077,-256.841,-232.306,-2017.500,64.760,59.780
846,49035.456000,1.468,275.225,-197.683,-360.244,-251.919,-210.438,-1819.500,105.760,170.780
847,49035.479000,27.901,281.296,-196.695,-370.161,-243.126,-207.320,-1707.500,563.760,309.780
848,49035.498000,61.185,274.213,-208.556,-389.040,-234.262,-195.183,-1524.500,710.760,333.780
849,49035.530000,56.291,275.225,-223.382,-382.348,-228.526,-189.401,-1386.500,387.760,265.780
850,49035.544000,8.321,263.083,-217.452,-391.431,-226.526,-174.476,-1145.500,128.760,183.780
851,49035.553000,-10.279,260.047,-210.533,-396.366,-229.387,-170.447,-979.500,430.760,208.780
852,49035.575000,13.216,260.047,-221.405,-410.293,-219.597,-162.337,-776.500,793.760,166.780
853,49035.600000,45.522,262.071,-237.220,-412.225,-212.802,-167.233,-597.500,650.760,79.780
854,49035.617000,44.543,259.036,-256.000,-412.381,-212.811,-158.370,-483.500,402.760,36.780
855,49035.640000,20.069,254.988,-255.012,-409.481,-210.904,-157.439,-251.500,-26.240,-8.220
856,49035.660000,1.468,266.119,-259.954,-413.324,-214.736,-159.335,-31.500,-174.240,-91.220
857,49035.683000,-3.426,275.225,-267.861,-404.439,-217.715,-162.442,281.500,-108.240,-129.220
858,49035.700000,4.405,285.344,-289.606,-408.337,-213.807,-165.331,601.500,-86.240,-180.220
859,49035.726000,13.216,290.403,-302.456,-397.399,-219.702,-172.409,919.500,-141.240,-279.220
860,49035.744000,19.090,307.605,-307.398,-393.302,-226.503,-179.365,1223.500,-249.240,-395.220
861,49035.763000,18.111,313.676,-300.479,-378.303,-231.458,-195.376,1544.500,-279.240,-425.220
862,49035.785000,26.922,322.783,-298.502,-362.204,-240.286,-216.324,1859.500,-185.240,-376.220
863,49035.800000,36.711,336.949,-297.514,-358.999,-243.202,-230.159,2022.500,-121.240,-342.220
864,49035.821000,49.438,337.960,-282.687,-338.953,-246.256,-256.106,2337.500,44.760,-210.220
865,49035.844000,61.185,343.020,-266.873,-324.951,-249.268,-272.102,2602.500,183.760,-44.220
866,49035.864000,65.101,338.972,-254.023,-297.096,-242.716,-302.136,2825.500,222.760,56.780
867,49035.886000,69.996,325.818,-245.127,-281.102,-247.678,-319.149,2986.500,198.760,125.780
868,49035.915000,69.017,317.723,-246.116,-244.474,-247.016,-344.409,3101.500,130.760,148.780
869,49035.949000,67.059,297.486,-254.023,-206.833,-246.360,-371.656,3233.500,54.760,191.780
870,49035.963000,74.891,289.391,-229.313,-194.009,-244.534,-378.776,3237.500,-4.240,193.780
871,49035.982000,67.059,287.368,-220.417,-150.635,-247.811,-396.275,3288.500,-113.240,188.780
872,49035.985000,53.354,262.071,-207.568,-119.097,-253.891,-406.671,3309.500,-117.240,213.780
873,49036.8000,47.480,235.763,-182.857,-77.860,-258.128,-413.302,3281.500,-16.240,240.780
874,49036.28000,48.459,211.478,-179.892,-51.399,-255.462,-417.711,3221.500,80.760,316.780
875,49036.59000,44.543,181.123,-162.100,-16.078,-256.745,-423.257,3144.500,117.760,386.780
876,49036.61000,40.627,153.802,-152.216,25.089,-260.987,-425.949,3033.500,73.760,467.780
877,49036.89000,39.648,123.447,-148.263,43.585,-258.257,-422.342,2901.500,-29.240,489.780
878,49036.106000,38.669,92.079,-156.170,82.632,-267.330,-413.178,2796.500,-226.240,468.780
879,49036.134000,32.795,62.735,-144.309,105.078,-274.313,-406.675,2630.500,-410.240,460.780
880,49036.151000,28.880,43.510,-135.413,136.228,-283.318,-393.434,2482.500,-576.240,433.780
881,49036.169000,18.111,21.249,-135.413,141.988,-292.089,-382.696,2415.500,-692.240,419.780
882,49036.191000,4.405,-9.107,-117.622,171.017,-302.053,-359.571,2331.500,-831.240,375.780
883,49036.208000,-12.237,-37.439,-106.749,191.405,-320.639,-341.206,2178.500,-818.240,326.780
884,49036.229000,-22.027,-59.700,-111.691,213.696,-325.695,-326.827,2090.500,-640.240,307.780
885,49036.256000,-22.027,-84.996,-105.761,232.999,-330.728,-309.443,1961.500,-442.240,253.780
886,49036.289000,-18.111,-101.186,-104.772,239.729,-338.540,-298.724,1834.500,-315.240,169.780
887,49036.308000,-16.153,-115.352,-96.865,257.040,-343.557,-279.335,1710.500,-222.240,117.780
888,49036.323000,-22.027,-127.494,-78.085,262.755,-341.683,-271.563,1575.500,-73.240,89.780
889,49036.340000,-23.006,-139.636,-70.178,277.225,-343.764,-259.018,1457.500,89.760,133.780
890,49036.358000,-5.384,-156.838,-46.456,284.976,-346.743,-253.245,1384.500,154.760,145.780
891,49036.372000,-6.363,-164.933,-6.919,296.579,-346.858,-245.575,1182.500,221.760,134.780
892,49036.399000,-28.880,-182.134,7.907,299.341,-343.023,-237.753,940.500,304.760,174.780
893,49036.421000,-20.069,-204.395,2.965,296.422,-341.059,-239.672,663.500,351.760,198.780
894,49036.441000,-0.489,-213.502,-5.931,297.306,-342.041,-233.780,354.500,124.760,134.780
895,49036.461000,-10.279,-211.478,-12.849,306.209,-346.956,-236.885,51.500,-158.240,62.780
896,49036.484000,-26.922,-211.478,-13.838,292.484,-347.800,-234.672,-227.500,-250.240,36.780
897,49036.501000,-40.627,-208.443,-16.803,294.468,-350.720,-234.704,-468.500,-245.240,-16.220
898,49036.524000,-37.690,-198.324,-25.699,288.667,-352.599,-237.553,-671.500,-213.240,-35.220
899,49036.541000,-34.753,-189.217,-34.595,283.851,-349.646,-243.377,-760.500,-188.240,-53.220
900,49036.564000,-27.901,-180.111,-47.444,282.898,-348.668,-245.331,-928.500,-144.240,-95.220
901,49036.589000,-20.069,-168.980,-49.421,275.365,-350.516,-260.946,-1084.500,-105.240,-183.220
902,49036.616000,-22.027,-158.862,-42.502,271.502,-346.606,-265.805,-1295.500,-35.240,-219.220
903,49036.654000,-20.069,-131.542,-77.097,258.971,-344.544,-277.399,-1471.500,58.760,-222.220
904,49036.654000,-17.132,-120.411,-77.097,251.237,-339.628,-285.144,-1601.500,142.760,-201.220
905,49036.669000,-12.237,-110.292,-79.073,226.072,-333.574,-303.410,-1778.500,254.760,-151.220
906,49036.696000,3.426,-83.984,-102.795,208.856,-329.519,-327.722,-1966.500,297.760,-126.220
907,49036.709000,7.342,-60.711,-111.691,199.122,-325.556,-332.476,-2086.500,259.760,-173.220
908,49036.726000,-4.405,-48.569,-101.807,171.974,-320.453,-348.738,-2144.500,212.760,-201.220
909,49036.749000,-11.258,-32.379,-94.888,167.192,-313.627,-358.506,-2292.500,336.760,-221.220
910,49036.771000,4.405,-1.012,-135.413,131.280,-305.538,-378.553,-2494.500,588.760,-211.220
911,49036.794000,23.985,18.213,-153.205,108.833,-296.619,-386.042,-2555.500,710.760,-219.220
912,49036.812000,27.901,27.320,-124.541,74.773,-284.682,-402.189,-2647.500,675.760,-236.220
913,49036.834000,41.606,59.700,-157.158,57.228,-276.775,-409.764,-2908.500,686.760,-238.220
914,49036.854000,68.038,99.162,-199.660,16.241,-267.684,-419.878,-2969.500,497.760,-277.220
915,49036.879000,75.870,105.233,-170.008,-22.891,-260.552,-423.132,-2992.500,159.760,-408.220
916,49036.894000,64.122,142.672,-182.857,-41.473,-265.222,-420.829,-3261.500,-202.240,-582.220
917,49036.911000,45.522,190.229,-225.359,-85.713,-262.898,-409.220,-3245.500,-367.240,-642.220
918,49036.938000,26.922,191.241,-223.382,-107.352,-265.612,-400.958,-3090.500,-357.240,-613.220
919,49036.960000,26.922,204.395,-220.417,-147.686,-264.292,-388.433,-3117.500,-211.240,-485.220
920,49036.988000,43.564,245.881,-201.637,-167.394,-267.993,-378.235,-3194.500,26.760,-437.220
921,49037.16000,65.101,316.711,-216.463,-202.905,-268.657,-360.870,-3273.500,-58.240,-419.220
922,49037.23000,67.059,363.257,-245.127,-237.679,-269.343,-329.736,-3126.500,-397.240,-308.220
923,49037.40000,43.564,337.960,-240.185,-249.558,-275.051,-318.690,-2883.500,-671.240,-198.220
924,49037.78000,23.006,325.818,-225.359,-285.310,-279.600,-285.566,-2819.500,-652.240,-85.220
925,49037.80000,22.027,345.043,-204.602,-296.334,-277.581,-271.591,-2759.500,-456.240,33.780
926,49037.96000,27.901,363.257,-197.683,-317.435,-279.362,-238.728,-2708.500,-402.240,134.780
927,49037.124000,15.174,345.043,-222.394,-331.367,-280.218,-224.698,-2489.500,-459.240,455.780
928,49037.141000,-4.405,319.747,-203.614,-360.308,-271.281,-196.632,-2316.500,-456.240,770.780
929,49037.159000,-17.132,335.937,-170.008,-382.443,-261.440,-166.718,-2293.500,-146.240,883.780
930,49037.181000,-12.237,336.949,-154.193,-389.537,-251.713,-157.744,-2158.500,298.760,938.780
931,49037.199000,17.132,316.711,-181.869,-404.676,-239.022,-137.802,-1968.500,307.760,919.780
932,49037.233000,25.943,302.545,-185.822,-414.774,-233.144,-122.863,-1866.500,27.760,664.780
933,49037.255000,9.300,315.700,-187.799,-422.050,-224.394,-103.056,-1718.500,-91.240,439.780
934,49037.270000,-28.880,312.664,-220.417,-430.069,-220.462,-94.058,-1344.500,123.760,352.780
935,49037.293000,-32.795,292.427,-237.220,-433.221,-217.544,-83.177,-1195.500,317.760,319.780
936,49037.306000,-17.132,291.415,-237.220,-437.249,-212.675,-79.174,-897.500,676.760,127.780
937,49037.326000,7.342,299.510,-256.000,-436.297,-211.718,-78.207,-575.500,787.760,19.780
938,49037.346000,21.048,296.474,-286.641,-439.207,-206.850,-82.099,-161.500,576.760,1.780
939,49037.374000,22.027,288.379,-279.722,-441.103,-209.733,-84.031,200.500,241.760,-51.220
940,49037.411000,21.048,298.498,-280.710,-436.106,-211.707,-89.040,556.500,-97.240,-172.220
941,49037.425000,15.174,304.569,-279.722,-429.153,-211.763,-95.069,944.500,-314.240,-324.220
942,49037.434000,9.300,306.593,-280.710,-416.101,-225.411,-107.098,1310.500,-379.240,-452.220
943,49037.451000,1.468,317.723,-276.757,-416.888,-229.263,-115.939,1623.500,-247.240,-487.220
944,49037.474000,12.237,343.020,-268.849,-402.728,-238.073,-137.838,1781.500,-153.240,-484.220
945,49037.496000,38.669,360.221,-261.931,-391.453,-244.917,-163.625,2083.500,-37.240,-452.220
946,49037.514000,61.185,367.304,-248.093,-383.365,-246.909,-177.548,2351.500,-131.240,-410.220
947,49037.534000,49.438,370.340,-233.266,-365.143,-258.650,-206.406,2590.500,-223.240,-344.220
948,49037.556000,34.753,369.328,-223.382,-344.292,-257.852,-224.496,2815.500,-21.240,-237.220
949,49037.579000,38.669,367.304,-216.463,-323.155,-259.941,-257.354,3009.500,263.760,-113.220
950,49037.601000,46.501,355.162,-211.521,-311.154,-258.098,-273.320,3161.500,361.760,18.780
951,49037.619000,60.207,345.043,-215.475,-282.112,-257.350,-312.228,3261.500,249.760,65.780
952,49037.639000,59.228,333.913,-211.521,-244.514,-259.601,-335.533,3314.500,174.760,82.780
953,49037.656000,54.333,321.771,-207.568,-222.727,-259.782,-350.685,3325.500,40.760,75.780
954,49037.679000,42.585,308.617,-200.649,-185.217,-258.166,-371.040,3340.500,-0.240,51.780
955,49037.701000,26.922,289.391,-202.625,-154.639,-266.171,-381.416,3372.500,74.760,78.780
956,49037.721000,21.048,261.059,-186.811,-112.254,-262.665,-401.859,3337.500,284.760,150.780
957,49037.741000,29.859,238.798,-176.927,-96.521,-259.899,-408.048,3291.500,377.760,225.780
958,49037.764000,40.627,214.514,-168.031,-45.449,-258.415,-420.766,3218.500,299.760,291.780
959,49037.790000,33.774,192.253,-167.042,-23.861,-259.575,-424.100,3171.500,258.760,373.780
960,49037.803000,23.006,159.874,-154.193,20.170,-256.104,-426.852,3078.500,331.760,485.780
961,49037.825000,28.880,123.447,-140.355,50.407,-253.482,-423.453,2931.500,337.760,527.780
962,49037.843000,50.417,91.067,-144.309,72.957,-258.523,-423.846,2853.500,150.760,510.780
963,49037.865000,53.354,61.723,-127.506,109.968,-266.614,-410.709,2655.500,-247.240,408.780
964,49037.896000,43.564,39.462,-126.517,127.488,-273.555,-402.150,2458.500,-628.240,338.780
965,49037.905000,27.901,16.190,-122.564,148.715,-286.350,-378.884,2296.500,-780.240,259.780
966,49037.923000,12.237,-3.036,-114.656,173.154,-295.285,-373.399,2144.500,-795.240,192.780
967,49037.945000,2.447,-58.688,-107.737,193.410,-303.232,-353.075,2001.500,-711.240,217.780
968,49037.963000,0.489,-77.913,-95.876,214.637,-314.091,-330.795,1835.500,-653.240,180.780
969,49037.989000,-25.943,-91.067,-85.992,226.277,-321.947,-321.148,1683.500,-607.240,144.780
970,49038.9000,-36.711,-113.328,-89.946,234.834,-328.817,-303.571,1626.500,-504.240,256.780
971,49038.24000,-21.048,-139.636,-78.085,247.459,-329.905,-297.886,1536.500,-214.240,302.780
972,49038.38000,-19.090,-156.838,-64.247,256.085,-332.900,-286.222,1403.500,-21.240,276.780
973,49038.65000,-30.837,-166.957,-57.328,261.905,-336.827,-281.398,1225.500,19.760,212.780
974,49038.88000,-30.837,-177.075,-50.409,272.478,-336.936,-270.756,1064.500,119.760,222.780
975,49038.105000,-23.985,-185.170,-37.560,279.259,-340.874,-264.964,890.500,208.760,225.780
976,49038.128000,-24.964,-190.229,-22.734,276.246,-339.883,-260.974,678.500,200.760,150.780
977,49038.155000,-23.006,-199.336,-15.815,282.055,-335.101,-260.098,440.500,128.760,75.780
978,49038.178000,-15.174,-210.466,-11.861,285.961,-338.041,-258.195,178.500,43.760,-25.220
979,49038.218000,-13.216,-213.502,-18.780,289.866,-337.109,-258.265,36.500,-18.240,-83.220
980,49038.229000,-16.153,-200.348,-25.699,280.090,-337.987,-258.091,-240.500,-134.240,-167.220
981,49038.248000,-18.111,-194.277,-26.687,279.241,-338.939,-264.966,-479.500,-102.240,-203.220
982,49038.256000,-12.237,-190.229,-37.560,278.855,-334.377,-22.789,-739.500,30.760,-213.220
983,49038.281000,6.363,-180.111,-54.363,269.645,-331.096,-279.573,-991.500,93.760,-234.220
984,49038.300000,19.090,-157.850,-59.305,262.985,-327.151,-292.257,-1209.500,23.760,-269.220
985,49038.325000,10.279,-139.636,-48.432,256.162,-328.056,-293.120,-1410.500,-70.240,-242.220
986,49038.334000,7.342,-128.506,-63.259,241.786,-325.001,-311.574,-1614.500,-102.240,-161.220
987,49038.360000,11.258,-111.304,-71.166,227.143,-322.930,-314.271,-1757.500,-90.240,-96.220
988,49038.363000,7.342,-90.055,-70.178,208.803,-323.715,-327.728,-1838.500,-99.240,-75.220
989,49038.394000,-7.342,-70.830,-83.027,199.129,-316.844,-337.409,-2017.500,-11.240,-5.220
990,49038.415000,5.384,-55.652,-111.691,173.038,-316.586,-355.652,-2195.500,192.760,85.780
991,49038.435000,19.090,-29.344,-125.529,139.924,-310.467,-366.887,-2332.500,282.760,55.780
992,49038.456000,6.363,6.071,-132.448,118.552,-308.327,-376.356,-2470.500,211.760,-49.220
993,49038.478000,-9.300,21.249,-140.355,82.529,-305.084,-387.536,-2564.500,295.760,-74.220
994,49038.498000,18.111,28.332,-172.973,65.027,-298.142,-397.079,-2721.500,477.760,14.780
995,49038.515000,56.291,51.605,-202.625,26.933,-290.048,-404.290,-2791.500,319.760,-64.220
996,49038.554000,45.522,90.055,-195.707,9.363,-288.917,-406.934,-2847.500,-75.240,-183.220
997,49038.580000,3.426,118.387,-158.147,-30.807,-290.491,-402.283,-2894.500,-137.240,-176.220
998,49038.589000,10.279,150.767,-193.730,-70.987,-283.355,-401.581,-3049.500,57.760,84.780
999,49038.611000,49.438,164.933,-240.185,-101.469,-276.312,-396.128,-2974.500,158.760,192.780
1000,49038.626000,70.975,171.004,-201.637,-140.876,-278.875,-378.692,-3031.500,-174.240,22.780
