Sample, Time, ACCX, ACCY, ACCZ, MAGX, MAGY, MAGZ, GYRX, GYRY, GYRZ
0,48890.108000,-27.901,-39.462,-235.243,79.071,-359.289,-329.328,-48.500,14.760,-52.220
1,48890.136000,-23.985,-42.498,-239.197,78.153,-362.180,-331.278,-54.500,-48.240,-42.220
2,48890.153000,-30.837,-41.486,-238.208,71.217,-362.123,-326.233,-58.500,-72.240,-36.220
3,48890.176000,-41.606,-40.474,-240.185,74.204,-360.211,-330.226,-43.500,-6.240,-17.220
4,48890.198000,-42.585,-39.462,-242.162,74.187,-360.212,-329.241,-26.500,76.760,-2.220
5,48890.216000,-22.027,-36.427,-244.139,79.105,-359.287,-331.298,-27.500,28.760,-21.220
6,48890.238000,-31.816,-39.462,-244.139,78.119,-364.118,-328.321,-33.500,-35.240,-36.220
7,48890.256000,-41.606,-38.451,-247.104,78.153,-362.180,-331.278,-46.500,-91.240,-55.220
8,48890.278000,-43.564,-37.439,-244.139,78.127,-361.214,-330.294,-28.500,-11.240,-43.220
9,48890.300000,-33.774,-35.415,-243.151,70.265,-361.145,-328.186,-10.500,78.760,-36.220
10,48890.331000,-24.964,-34.403,-245.127,78.118,-360.247,-330.295,-1.500,70.760,-30.220
11,48890.350000,-23.985,-35.415,-243.151,79.096,-358.320,-331.299,0.500,-19.240,-34.220
12,48890.368000,-31.816,-35.415,-242.162,78.110,-361.215,-329.309,-4.500,-75.240,-34.220
13,48890.385000,-34.753,-38.451,-241.174,78.093,-363.152,-327.338,4.500,-42.240,-16.220
14,48890.406000,-32.795,-39.462,-240.185,76.213,-360.226,-333.215,11.500,15.760,-2.220
15,48890.423000,-28.880,-38.451,-237.220,76.179,-362.164,-330.258,11.500,31.760,1.780
16,48890.445000,-27.901,-39.462,-238.208,70.317,-361.142,-331.140,6.500,22.760,-0.220
17,48890.463000,-31.816,-39.462,-238.208,77.132,-365.078,-327.318,-5.500,-17.240,0.780
18,48890.482000,-33.774,-37.439,-236.232,78.093,-361.216,-328.324,-7.500,-13.240,3.780
19,48890.498000,-34.753,-37.439,-236.232,78.109,-359.279,-330.296,-5.500,17.760,10.780
20,48890.535000,-32.795,-41.486,-237.220,70.309,-364.046,-329.168,-13.500,14.760,20.780
21,48890.550000,-33.774,-38.451,-239.197,72.248,-362.129,-329.204,-26.500,-0.240,4.780
22,48890.572000,-34.753,-39.462,-238.208,69.346,-360.165,-332.109,-31.500,-1.240,3.780
23,48890.600000,-35.732,-39.462,-241.174,76.179,-360.228,-331.245,-36.500,-2.240,-9.220
24,48890.608000,-33.774,-37.439,-244.139,76.223,-363.129,-332.227,-38.500,-10.240,-11.220
25,48890.633000,-38.669,-37.439,-242.162,77.201,-361.202,-333.231,-36.500,-17.240,-20.220
26,48890.656000,-37.690,-37.439,-241.174,75.113,-358.288,-327.291,-26.500,10.760,-15.220
27,48890.682000,-31.816,-37.439,-243.151,75.227,-363.121,-331.225,-18.500,26.760,-12.220
28,48890.703000,-30.837,-36.427,-241.174,78.084,-362.184,-327.339,-23.500,-6.240,-17.220
29,48890.722000,-33.774,-37.439,-242.162,79.088,-359.288,-330.313,-27.500,-29.240,-11.220
30,48890.741000,-35.732,-36.427,-242.162,71.260,-361.153,-329.188,-21.500,-14.240,-11.220
31,48890.755000,-36.711,-37.439,-240.185,69.373,-361.131,-333.092,-17.500,16.760,-13.220
32,48890.782000,-33.774,-35.415,-238.208,73.226,-360.202,-330.208,-12.500,41.760,-12.220
33,48890.796000,-28.880,-36.427,-240.185,69.328,-356.294,-333.097,-16.500,41.760,-16.220
34,48890.817000,-26.922,-35.415,-241.174,72.264,-358.256,-332.163,-23.500,10.760,-16.220
35,48890.840000,-27.901,-36.427,-241.174,71.252,-360.185,-329.189,-28.500,-25.240,-9.220
36,48890.863000,-32.795,-35.415,-240.185,76.196,-362.163,-331.243,-26.500,-15.240,-0.220
37,48890.883000,-35.732,-34.403,-239.197,76.161,-358.293,-331.247,-19.500,31.760,10.780
38,48890.899000,-31.816,-34.403,-239.197,69.320,-359.198,-331.125,-16.500,54.760,15.780
39,48890.924000,-27.901,-34.403,-239.197,76.205,-361.194,-332.229,-22.500,24.760,8.780
40,48890.944000,-28.880,-34.403,-239.197,74.238,-356.337,-334.169,-34.500,-27.240,1.780
41,48890.962000,-31.816,-35.415,-239.197,71.294,-357.279,-333.131,-40.500,-38.240,7.780
42,48890.985000,-32.795,-35.415,-240.185,70.298,-357.271,-332.129,-39.500,-28.240,11.780
43,48891.4000,-33.774,-33.391,-239.197,78.127,-361.214,-330.294,-37.500,-9.240,8.780
44,48891.27000,-33.774,-34.403,-242.162,69.425,-363.064,-335.060,-38.500,0.760,9.780
45,48891.50000,-31.816,-34.403,-241.174,70.368,-361.139,-334.095,-36.500,4.760,-1.220
46,48891.72000,-33.774,-33.391,-242.162,74.309,-362.141,-335.148,-38.500,6.760,-9.220
47,48891.84000,-33.774,-31.368,-242.162,73.243,-358.265,-332.180,-37.500,16.760,-11.220
48,48891.102000,-30.837,-31.368,-242.162,70.359,-358.236,-335.082,-40.500,10.760,-7.220
49,48891.142000,-30.837,-32.379,-241.174,71.364,-359.211,-336.083,-38.500,0.760,-11.220
50,48891.184000,-34.753,-31.368,-242.162,67.363,-359.180,-331.090,-36.500,6.760,-3.220
51,48891.184000,-32.795,-29.344,-242.162,65.441,-359.161,-333.025,-29.500,24.760,1.780
52,48891.188000,-30.837,-30.356,-246.116,69.416,-360.161,-336.048,-21.500,12.760,8.780
53,48891.206000,-31.816,-31.368,-245.127,64.453,-356.249,-333.996,-21.500,-9.240,0.780
54,48891.226000,-34.753,-30.356,-245.127,77.200,-359.266,-334.218,-17.500,-4.240,-0.220
55,48891.254000,-37.690,-29.344,-243.151,69.433,-360.160,-337.032,-11.500,17.760,-2.220
56,48891.273000,-34.753,-30.356,-243.151,65.449,-358.192,-334.011,-4.500,29.760,-4.220
57,48891.293000,-30.837,-31.368,-243.151,64.479,-357.215,-334.979,-6.500,10.760,-14.220
58,48891.313000,-30.837,-30.356,-241.174,63.509,-356.238,-335.948,-12.500,-18.240,-15.220
59,48891.337000,-33.774,-32.379,-241.174,67.415,-357.242,-335.031,-12.500,-17.240,-14.220
60,48891.364000,-33.774,-31.368,-239.197,70.341,-354.365,-336.071,-12.500,6.760,-11.220
61,48891.373000,-31.816,-31.368,-239.197,61.578,-357.186,-336.897,-16.500,9.760,-8.220
62,48891.396000,-30.837,-29.344,-242.162,63.501,-359.142,-333.975,-17.500,11.760,-4.220
63,48891.418000,-29.859,-30.356,-241.174,66.453,-353.360,-337.972,-20.500,0.760,-13.220
64,48891.441000,-30.837,-30.356,-242.162,69.372,-359.195,-334.079,-21.500,5.760,-22.220
65,48891.456000,-31.816,-29.344,-242.162,67.318,-352.408,-332.082,-19.500,7.760,-25.220
66,48891.472000,-31.816,-32.379,-242.162,66.462,-358.199,-335.998,-23.500,17.760,-18.220
67,48891.492000,-30.837,-32.379,-243.151,69.389,-357.259,-336.051,-21.500,25.760,-15.220
68,48891.512000,-28.880,-32.379,-241.174,61.552,-356.220,-335.913,-21.500,17.760,-11.220
69,48891.533000,-31.816,-33.391,-242.162,61.595,-355.250,-338.868,-21.500,6.760,-15.220
70,48891.556000,-31.816,-31.368,-243.151,70.384,-355.331,-338.039,-18.500,4.760,-18.220
71,48891.581000,-29.859,-32.379,-243.151,70.324,-354.366,-335.086,-16.500,-12.240,-19.220
72,48891.608000,-31.816,-31.368,-243.151,67.433,-361.112,-334.043,-18.500,-15.240,-20.220
73,48891.612000,-32.795,-30.356,-243.151,73.294,-356.327,-336.121,-14.500,2.760,-15.220
74,48891.640000,-30.837,-31.368,-242.162,66.462,-356.263,-336.984,-8.500,17.760,-12.220
75,48891.668000,-28.880,-31.368,-243.151,63.500,-353.335,-336.935,-7.500,13.760,-14.220
76,48891.691000,-28.880,-31.368,-244.139,65.475,-355.287,-336.968,-3.500,4.760,-11.220
77,48891.707000,-28.880,-32.379,-244.139,70.376,-356.299,-337.054,-2.500,-5.240,-10.220
78,48891.728000,-29.859,-30.356,-244.139,70.385,-357.266,-337.053,-2.500,-18.240,-4.220
79,48891.743000,-31.816,-31.368,-242.162,63.535,-355.268,-337.918,2.500,-10.240,-1.220
80,48891.761000,-31.816,-29.344,-242.162,60.574,-356.211,-335.896,4.500,6.760,-2.220
81,48891.788000,-29.859,-30.356,-242.162,64.479,-357.215,-334.979,2.500,5.760,-9.220
82,48891.808000,-30.837,-30.356,-240.185,67.432,-355.305,-337.003,4.500,6.760,-16.220
83,48891.823000,-30.837,-31.368,-243.151,70.402,-355.330,-339.024,4.500,13.760,-6.220
84,48891.843000,-28.880,-31.368,-242.162,66.410,-356.266,-334.030,6.500,17.760,-3.220
85,48891.870000,-28.880,-31.368,-241.174,68.427,-355.313,-338.005,3.500,3.760,-2.220
86,48891.891000,-28.880,-30.356,-243.151,70.376,-358.235,-336.067,1.500,-9.240,-1.220
87,48891.907000,-31.816,-31.368,-241.174,70.437,-357.263,-340.007,5.500,-19.240,-0.220
88,48891.923000,-31.816,-32.379,-241.174,66.418,-353.362,-336.003,4.500,1.760,-1.220
89,48891.943000,-30.837,-32.379,-241.174,70.402,-357.265,-338.037,2.500,4.760,2.780
90,48891.965000,-30.837,-29.344,-241.174,73.215,-351.492,-334.156,-1.500,3.760,-3.220
91,48891.989000,-30.837,-30.356,-241.174,66.497,-356.261,-338.954,0.500,7.760,-6.220
92,48892.3000,-28.880,-32.379,-241.174,63.518,-355.269,-336.934,-8.500,-8.240,-8.220
93,48892.31000,-29.859,-31.368,-241.174,70.359,-356.300,-336.069,-10.500,-8.240,-3.220
94,48892.50000,-31.816,-29.344,-241.174,61.595,-355.250,-338.868,-7.500,10.760,-3.220
95,48892.69000,-29.859,-30.356,-239.197,66.436,-357.233,-335.014,-5.500,15.760,-0.220
96,48892.110000,54.333,28.332,-268.849,68.360,-361.124,-331.106,-157.500,-224.240,7.780
97,48892.121000,-5.384,-27.320,-211.521,66.301,-368.855,-321.216,-289.500,-691.240,-109.220
98,48892.135000,-84.681,-32.379,-242.162,69.194,-371.788,-317.326,-139.500,-920.240,-18.220
99,48892.155000,-89.576,-35.415,-247.104,63.306,-373.671,-315.250,-118.500,-88.240,-7.220
100,48892.193000,-63.143,-26.308,-255.012,66.354,-372.724,-322.196,-51.500,462.760,-15.220
101,48892.197000,-48.459,-25.296,-247.104,67.330,-363.054,-327.147,-26.500,561.760,-24.220
102,48892.222000,-27.901,-17.202,-249.081,59.623,-362.976,-333.902,20.500,496.760,18.780
103,48892.231000,-13.216,-26.308,-253.035,62.523,-359.133,-333.958,3.500,202.760,1.780
104,48892.256000,-19.090,-25.296,-256.988,63.493,-360.110,-332.990,2.500,64.760,-4.220
105,48892.277000,-28.880,-25.296,-251.058,60.557,-358.148,-333.924,20.500,-81.240,0.780
106,48892.298000,-35.732,-27.320,-249.081,63.432,-359.146,-330.036,29.500,-95.240,10.780
107,48892.321000,-40.627,-27.320,-246.116,63.493,-360.110,-332.990,34.500,-40.240,14.780
108,48892.341000,-39.648,-27.320,-244.139,68.386,-362.090,-332.089,40.500,28.760,10.780
109,48892.368000,-34.753,-27.320,-244.139,63.440,-356.242,-332.009,44.500,66.760,15.780
110,48892.411000,-30.837,-28.332,-242.162,60.488,-358.152,-329.985,45.500,38.760,7.780
111,48892.419000,-29.859,-27.320,-241.174,63.502,-361.078,-332.989,42.500,-6.240,3.780
112,48892.438000,-33.774,-27.320,-239.197,70.299,-359.207,-331.142,41.500,-24.240,1.780
113,48892.441000,-36.711,-29.344,-239.197,67.459,-362.079,-335.026,38.500,-15.240,2.780
114,48892.465000,-34.753,-29.344,-239.197,64.454,-360.120,-332.022,36.500,14.760,-1.220
115,48892.487000,-31.816,-29.344,-239.197,67.381,-359.179,-332.075,30.500,24.760,-4.220
116,48892.507000,-29.859,-30.356,-240.185,67.389,-358.211,-333.061,19.500,-5.240,-6.220
117,48892.530000,-31.816,-32.379,-239.197,63.484,-361.079,-332.004,10.500,-32.240,-4.220
118,48892.554000,-34.753,-30.356,-240.185,67.424,-360.145,-334.044,13.500,-12.240,-4.220
119,48892.572000,-33.774,-30.356,-241.174,70.300,-363.079,-329.169,15.500,0.760,-2.220
120,48892.595000,-32.795,-30.356,-241.174,72.195,-358.260,-328.223,9.500,3.760,-1.220
121,48892.613000,-30.837,-31.368,-240.185,65.398,-360.131,-330.070,4.500,2.760,-1.220
122,48892.632000,-31.816,-28.332,-239.197,73.330,-362.132,-335.130,1.500,-9.240,2.780
123,48892.650000,-32.795,-31.368,-240.185,71.303,-358.247,-333.130,-0.500,-13.240,19.780
124,48892.678000,-34.753,-29.344,-240.185,67.337,-358.214,-330.106,-1.500,3.760,9.780
125,48892.706000,-34.753,-29.344,-243.151,63.441,-362.049,-329.049,5.500,14.760,7.780
126,48892.717000,-32.795,-31.368,-243.151,68.394,-361.122,-333.075,4.500,8.760,2.780
127,48892.732000,-32.795,-30.356,-242.162,67.346,-359.181,-330.105,2.500,-0.240,4.780
128,48892.756000,-34.753,-30.356,-242.162,63.501,-359.142,-333.975,6.500,0.760,13.780
129,48892.773000,-33.774,-31.368,-240.185,64.401,-356.251,-331.041,6.500,-0.240,10.780
130,48892.790000,-36.711,-29.344,-242.162,70.369,-363.075,-333.108,5.500,4.760,5.780
131,48892.816000,-33.774,-30.356,-242.162,67.389,-358.211,-333.061,6.500,18.760,4.780
132,48892.838000,-32.795,-30.356,-239.197,63.449,-357.209,-332.008,0.500,10.760,-0.220
133,48892.858000,-31.816,-30.356,-240.185,65.450,-362.064,-332.038,-7.500,-11.240,-4.220
134,48892.888000,-35.732,-32.379,-240.185,69.329,-358.230,-332.111,-10.500,-1.240,1.780
135,48892.898000,-36.711,-31.368,-243.151,65.423,-357.226,-333.027,-4.500,24.760,3.780
136,48892.915000,-33.774,-31.368,-240.185,64.358,-355.286,-329.073,-8.500,14.760,-4.220
137,48892.941000,-31.816,-31.368,-244.139,66.437,-359.169,-334.027,-11.500,2.760,-7.220
138,48892.958000,-32.795,-32.379,-243.151,69.364,-360.164,-333.093,-9.500,-5.240,-8.220
139,48892.981000,-35.732,-29.344,-245.127,66.393,-358.203,-332.059,-8.500,-7.240,-5.220
140,48893.3000,-32.795,-30.356,-244.139,61.466,-356.225,-330.989,-3.500,9.760,-2.220
141,48893.21000,-31.816,-29.344,-244.139,68.359,-359.188,-332.092,5.500,10.760,3.780
142,48893.43000,-33.774,-30.356,-244.139,66.393,-358.203,-332.059,6.500,-5.240,1.780
143,48893.87000,-33.774,-28.332,-244.139,69.285,-357.264,-330.142,6.500,0.760,4.780
144,48893.96000,-30.837,-30.356,-242.162,65.397,-358.195,-331.057,11.500,6.760,12.780
145,48893.110000,-35.732,-30.356,-242.162,61.492,-359.127,-330.986,6.500,-9.240,0.780
146,48893.135000,-34.753,-30.356,-243.151,71.302,-356.311,-334.117,11.500,-1.240,-4.220
147,48893.142000,-31.816,-31.368,-242.162,63.449,-359.145,-331.021,14.500,14.760,1.780
148,48893.163000,-29.859,-31.368,-241.174,67.424,-358.209,-335.030,11.500,8.760,0.780
149,48893.186000,-34.753,-33.391,-242.162,67.381,-359.179,-332.075,5.500,-23.240,-0.220
150,48893.203000,-36.711,-32.379,-239.197,72.291,-361.159,-332.160,6.500,-8.240,-0.220
151,48893.233000,-32.795,-33.391,-239.197,69.329,-360.166,-331.124,9.500,24.760,4.780
152,48893.256000,-31.816,-32.379,-241.174,64.462,-357.216,-333.995,3.500,11.760,0.780
153,48893.268000,-29.859,-30.356,-242.162,70.333,-357.269,-334.098,-4.500,-10.240,-6.220
154,48893.286000,-32.795,-29.344,-242.162,70.377,-360.171,-335.080,-12.500,-30.240,-6.220
155,48893.313000,-34.753,-31.368,-241.174,62.489,-361.071,-331.002,-15.500,-29.240,-5.220
156,48893.331000,-33.774,-29.344,-243.151,67.372,-360.148,-331.089,-10.500,-11.240,-3.220
157,48893.353000,-32.795,-31.368,-243.151,69.346,-360.165,-332.109,-4.500,-1.240,2.780
158,48893.376000,-31.816,-30.356,-243.151,68.386,-362.090,-332.089,0.500,6.760,8.780
159,48893.393000,-31.816,-32.379,-242.162,62.532,-360.100,-333.957,-1.500,-3.240,5.780
160,48893.416000,-35.732,-31.368,-242.162,71.330,-361.149,-333.127,-1.500,-6.240,0.780
161,48893.436000,-33.774,-32.379,-241.174,68.350,-358.221,-332.093,1.500,6.760,-1.220
162,48893.458000,-32.795,-31.368,-242.162,66.376,-358.204,-331.074,-1.500,5.760,-8.220
163,48893.481000,-33.774,-31.368,-243.151,71.268,-358.249,-331.160,-2.500,-1.240,-2.220
164,48893.513000,-32.795,-31.368,-241.174,69.303,-359.199,-330.140,-1.500,-4.240,0.780
165,48893.532000,-33.774,-29.344,-243.151,66.471,-359.167,-335.997,1.500,-3.240,2.780
166,48893.541000,-32.795,-30.356,-242.162,62.409,-354.300,-330.024,3.500,-0.240,6.780
167,48893.566000,-31.816,-32.379,-243.151,65.484,-360.126,-334.994,6.500,3.760,7.780
168,48893.578000,-31.816,-32.379,-243.151,67.381,-359.179,-332.075,5.500,1.760,3.780
169,48893.596000,-34.753,-32.379,-243.151,64.479,-357.215,-334.979,6.500,7.760,1.780
170,48893.623000,-32.795,-31.368,-242.162,64.445,-359.153,-332.023,7.500,20.760,0.780
171,48893.638000,-30.837,-32.379,-244.139,71.354,-356.308,-337.071,6.500,5.760,0.780
172,48893.652000,-31.816,-33.391,-241.174,68.367,-356.284,-334.065,5.500,-17.240,1.780
173,48893.680000,-32.795,-32.379,-240.185,69.285,-357.264,-330.142,1.500,-12.240,6.780
174,48893.705000,-31.816,-31.368,-241.174,62.471,-359.136,-331.004,4.500,-1.240,13.780
175,48893.720000,-31.816,-30.356,-241.174,63.459,-362.048,-330.033,5.500,-3.240,8.780
176,48893.736000,-31.816,-30.356,-241.174,65.415,-360.130,-331.055,5.500,-11.240,6.780
177,48893.763000,-33.774,-32.379,-240.185,66.324,-358.207,-328.120,4.500,3.760,7.780
178,48893.801000,-32.795,-31.368,-241.174,67.441,-360.144,-335.028,6.500,13.760,12.780
179,48893.815000,-29.859,-30.356,-241.174,68.307,-359.191,-329.138,4.500,11.760,16.780
180,48893.828000,-30.837,-32.379,-241.174,71.339,-362.116,-333.126,-0.500,-13.240,18.780
181,48893.852000,-33.774,-32.379,-242.162,69.329,-358.230,-332.111,-7.500,-21.240,6.780
182,48893.868000,-35.732,-31.368,-242.162,63.457,-356.241,-332.993,-5.500,6.760,9.780
183,48893.893000,-32.795,-31.368,-242.162,65.362,-356.261,-330.074,-1.500,11.760,9.780
184,48893.906000,-31.816,-32.379,-242.162,70.324,-358.238,-333.113,-2.500,-4.240,6.780
185,48893.928000,-33.774,-33.391,-242.162,63.423,-358.178,-330.037,-3.500,-18.240,4.780
186,48893.951000,-34.753,-32.379,-242.162,65.415,-358.194,-332.041,1.500,-3.240,3.780
187,48893.960000,-32.795,-31.368,-241.174,74.266,-365.047,-331.206,2.500,-7.240,4.780
188,48893.992000,-30.837,-31.368,-242.162,68.324,-359.190,-330.123,-4.500,-30.240,4.780
189,48894.9000,-31.816,-31.368,-243.151,65.467,-360.127,-334.009,-3.500,-32.240,1.780
190,48894.32000,-34.753,-30.356,-242.162,68.308,-361.127,-328.151,0.500,-11.240,8.780
191,48894.54000,-35.732,-31.368,-242.162,69.355,-361.132,-332.108,4.500,23.760,9.780
192,48894.72000,-30.837,-31.368,-240.185,64.384,-358.188,-329.070,0.500,26.760,7.780
193,48894.95000,-27.901,-32.379,-241.174,71.321,-360.181,-333.128,-3.500,-4.240,7.780
194,48894.115000,-30.837,-32.379,-241.174,69.364,-362.099,-332.107,-11.500,-41.240,5.780
195,48894.132000,-35.732,-31.368,-240.185,72.256,-361.161,-330.190,-5.500,-18.240,14.780
196,48894.155000,-37.690,-31.368,-241.174,67.337,-358.214,-330.106,1.500,26.760,16.780
197,48894.177000,-35.732,-29.344,-242.162,63.502,-363.013,-332.002,6.500,28.760,16.780
198,48894.199000,-31.816,-30.356,-242.162,63.484,-361.079,-332.004,-0.500,-0.240,7.780
199,48894.228000,-32.795,-30.356,-240.185,61.501,-358.159,-331.972,-7.500,-22.240,5.780
200,48894.232000,-33.774,-30.356,-240.185,67.399,-363.050,-331.086,-9.500,-21.240,4.780
201,48894.262000,-34.753,-30.356,-242.162,69.373,-363.067,-332.106,-8.500,-11.240,6.780
202,48894.283000,-33.774,-29.344,-242.162,68.386,-362.090,-332.089,-7.500,4.760,9.780
203,48894.306000,-34.753,-31.368,-243.151,67.346,-361.117,-329.119,-6.500,11.760,6.780
204,48894.327000,-31.816,-31.368,-244.139,62.489,-361.071,-331.002,-3.500,15.760,1.780
205,48894.343000,-30.837,-30.356,-244.139,69.295,-360.168,-329.154,-5.500,-8.240,1.780
206,48894.361000,-33.774,-29.344,-245.127,66.359,-358.205,-330.089,-0.500,-33.240,7.780
207,48894.381000,-37.690,-30.356,-244.139,68.325,-361.126,-329.136,5.500,-28.240,15.780
208,48894.403000,-38.669,-29.344,-243.151,61.519,-362.029,-330.984,13.500,7.760,13.780
209,48894.426000,-33.774,-30.356,-243.151,62.498,-363.974,-330.014,17.500,29.760,5.780
210,48894.448000,-30.837,-31.368,-243.151,65.459,-363.031,-332.037,15.500,19.760,-4.220
211,48894.463000,-35.732,-32.379,-242.162,62.480,-360.103,-331.003,3.500,-29.240,-12.220
212,48894.486000,-40.627,-32.379,-241.174,65.354,-359.165,-328.101,-1.500,-47.240,-17.220
213,48894.506000,-39.648,-32.379,-241.174,68.317,-362.094,-328.150,7.500,-13.240,-9.220
214,48894.531000,-32.795,-32.379,-242.162,67.355,-362.085,-329.118,17.500,24.760,-4.220
215,48894.551000,-30.837,-31.368,-240.185,63.406,-358.179,-329.053,9.500,0.760,-9.220
216,48894.568000,-33.774,-33.391,-238.208,63.415,-361.082,-328.065,-1.500,-39.240,-14.220
217,48894.586000,-36.711,-33.391,-239.197,67.417,-364.985,-331.084,-9.500,-32.240,-21.220
218,48894.608000,-37.690,-32.379,-240.185,65.364,-364.004,-326.127,-11.500,-10.240,-25.220
219,48894.631000,-33.774,-34.403,-240.185,62.524,-363.005,-331.985,-11.500,1.760,-24.220
220,48894.648000,-31.816,-31.368,-240.185,72.300,-364.062,-331.172,-10.500,10.760,-20.220
221,48894.679000,-31.816,-32.379,-241.174,67.390,-362.083,-331.087,-16.500,-18.240,-24.220
222,48894.699000,-34.753,-32.379,-242.162,66.394,-362.075,-330.085,-20.500,-31.240,-22.220
223,48894.717000,-35.732,-30.356,-242.162,61.467,-360.096,-329.016,-16.500,4.760,-13.220
224,48894.734000,-32.795,-31.368,-241.174,66.308,-362.080,-325.161,-12.500,19.760,-4.220
225,48894.755000,-32.795,-32.379,-242.162,65.433,-362.065,-331.053,-16.500,-5.240,-5.220
226,48894.777000,-32.795,-31.368,-242.162,67.450,-361.111,-335.027,-18.500,-17.240,-3.220
227,48894.791000,-34.753,-31.368,-243.151,63.346,-361.086,-324.126,-16.500,-9.240,-0.220
228,48894.822000,-36.711,-31.368,-245.127,61.536,-362.028,-331.968,-15.500,-6.240,-3.220
229,48894.833000,-35.732,-31.368,-244.139,66.368,-359.172,-330.088,-7.500,8.760,-2.220
230,48894.861000,-32.795,-30.356,-243.151,61.492,-359.127,-330.986,-1.500,18.760,-0.220
231,48894.879000,-32.795,-31.368,-244.139,64.429,-363.025,-329.065,1.500,-5.240,-0.220
232,48894.905000,-34.753,-30.356,-242.162,70.343,-364.044,-331.137,4.500,-8.240,1.780
233,48894.919000,-35.732,-29.344,-241.174,70.317,-361.142,-331.140,7.500,2.760,2.780
234,48894.942000,-31.816,-31.368,-241.174,63.458,-360.112,-331.020,-1.500,1.760,-2.220
235,48894.962000,-31.816,-30.356,-240.185,69.365,-364.035,-331.120,-6.500,-15.240,-6.220
236,48895.1000,-33.774,-29.344,-240.185,67.373,-364.019,-329.116,-9.500,-29.240,-4.220
237,48895.2000,-36.711,-30.356,-239.197,67.355,-362.085,-329.118,-10.500,-30.240,-2.220
238,48895.28000,-37.690,-29.344,-241.174,62.489,-363.006,-330.015,-8.500,-5.240,5.780
239,48895.43000,-34.753,-29.344,-241.174,64.437,-362.057,-330.051,-2.500,18.760,8.780
240,48895.66000,-32.795,-30.356,-243.151,64.377,-363.028,-326.111,-7.500,4.760,-0.220
241,48895.85000,-33.774,-30.356,-242.162,61.546,-364.931,-330.981,-10.500,-7.240,-6.220
242,48895.107000,-35.732,-32.379,-240.185,62.427,-358.170,-329.035,-11.500,-6.240,-7.220
243,48895.125000,-36.711,-30.356,-241.174,68.386,-364.026,-331.103,-11.500,0.760,-2.220
244,48895.146000,-36.711,-30.356,-241.174,66.350,-359.173,-329.103,-14.500,13.760,2.780
245,48895.167000,-31.816,-28.332,-244.139,64.402,-358.187,-330.055,-10.500,9.760,-4.220
246,48895.192000,-31.816,-29.344,-242.162,61.467,-360.096,-329.016,-12.500,-8.240,-11.220
247,48895.214000,-36.711,-30.356,-243.151,64.419,-360.122,-330.053,-14.500,-20.240,-10.220
248,48895.227000,-38.669,-28.332,-244.139,67.399,-364.986,-330.100,-6.500,7.760,-1.220
249,48895.245000,-34.753,-28.332,-244.139,62.463,-362.040,-329.031,3.500,26.760,8.780
250,48895.267000,-31.816,-30.356,-242.162,68.317,-364.030,-327.164,3.500,-4.240,4.780
251,48895.293000,-34.753,-30.356,-242.162,65.364,-362.069,-327.114,0.500,-24.240,-2.220
252,48895.316000,-37.690,-30.356,-242.162,64.428,-361.089,-330.052,-0.500,-13.240,-8.220
253,48895.343000,-40.627,-31.368,-240.185,62.446,-362.041,-328.047,-3.500,16.760,-10.220
254,48895.372000,-34.753,-31.368,-241.174,67.347,-363.053,-328.132,-6.500,11.760,-18.220
255,48895.386000,-32.795,-30.356,-240.185,64.421,-365.929,-327.092,-10.500,-6.240,-21.220
256,48895.390000,-34.753,-28.332,-241.174,70.386,-363.074,-334.093,-12.500,-27.240,-20.220
257,48895.412000,-36.711,-26.308,-240.185,68.334,-362.093,-329.135,-3.500,-8.240,-10.220
258,48895.435000,-34.753,-27.320,-239.197,58.610,-364.905,-330.929,-1.500,9.760,-4.220
259,48895.448000,-33.774,-28.332,-241.174,68.273,-359.193,-327.169,-2.500,8.760,-2.220
260,48895.471000,-31.816,-30.356,-241.174,63.406,-358.179,-329.053,-9.500,-0.240,-8.220
261,48895.491000,-34.753,-30.356,-242.162,60.514,-361.054,-329.982,-10.500,-3.240,-12.220
262,48895.511000,-34.753,-28.332,-241.174,66.412,-364.009,-330.083,-9.500,3.760,-10.220
263,48895.536000,-33.774,-30.356,-242.162,65.433,-362.065,-331.053,-7.500,9.760,-7.220
264,48895.558000,-33.774,-30.356,-244.139,61.501,-360.094,-330.985,-3.500,12.760,-3.220
265,48895.581000,-33.774,-29.344,-243.151,62.497,-360.102,-331.988,0.500,13.760,-3.220
266,48895.601000,-32.795,-29.344,-242.162,65.389,-359.164,-330.071,3.500,8.760,0.780
267,48895.627000,-32.795,-30.356,-242.162,68.342,-361.125,-330.121,-0.500,-3.240,2.780
268,48895.631000,-34.753,-29.344,-243.151,61.492,-359.127,-330.986,-1.500,-1.240,2.780
269,48895.678000,-33.774,-28.332,-243.151,60.575,-362.018,-332.936,1.500,11.760,0.780
270,48895.703000,-31.816,-29.344,-243.151,63.432,-359.146,-330.036,1.500,-3.240,0.780
271,48895.717000,-36.711,-29.344,-243.151,73.243,-358.265,-332.180,4.500,-4.240,0.780
272,48895.723000,-35.732,-30.356,-241.174,64.384,-358.188,-329.070,7.500,3.760,8.780
273,48895.741000,-33.774,-28.332,-242.162,64.455,-362.056,-331.035,9.500,18.760,5.780
274,48895.764000,-33.774,-29.344,-242.162,67.382,-363.051,-330.102,6.500,2.760,1.780
275,48895.788000,-36.711,-29.344,-244.139,65.408,-364.970,-328.096,0.500,-18.240,-9.220
276,48895.806000,-36.711,-28.332,-242.162,63.450,-361.081,-330.034,1.500,-4.240,-13.220
277,48895.830000,-32.795,-29.344,-242.162,65.390,-361.099,-329.084,5.500,7.760,-5.220
278,48895.855000,-33.774,-29.344,-242.162,68.281,-360.161,-327.168,3.500,-6.240,-4.220
279,48895.872000,-33.774,-29.344,-242.162,68.324,-359.190,-330.123,2.500,-14.240,-1.220
280,48895.887000,-34.753,-29.344,-242.162,60.479,-359.120,-329.000,5.500,-10.240,-3.220
281,48895.910000,-35.732,-28.332,-241.174,69.269,-363.073,-326.197,6.500,-7.240,-8.220
282,48895.927000,-34.753,-29.344,-242.162,64.410,-357.219,-331.040,6.500,4.760,-11.220
283,48895.950000,-32.795,-31.368,-242.162,65.337,-357.231,-328.103,2.500,8.760,-10.220
284,48895.972000,-33.774,-30.356,-241.174,67.381,-361.115,-331.088,-0.500,-1.240,-13.220
285,48895.992000,-34.753,-31.368,-241.174,68.325,-361.126,-329.136,2.500,-10.240,-9.220
286,48896.9000,-33.774,-30.356,-241.174,68.385,-358.219,-334.063,8.500,-3.240,-4.220
287,48896.32000,-33.774,-31.368,-241.174,64.341,-359.159,-326.115,8.500,-0.240,-4.220
288,48896.55000,-34.753,-31.368,-242.162,62.445,-360.105,-329.033,4.500,-3.240,-2.220
289,48896.75000,-34.753,-28.332,-240.185,68.316,-360.159,-329.137,0.500,-6.240,-8.220
290,48896.95000,-34.753,-29.344,-241.174,69.312,-362.102,-329.152,-2.500,-9.240,-9.220
291,48896.115000,-36.711,-30.356,-240.185,63.424,-362.050,-328.064,-7.500,-18.240,-14.220
292,48896.146000,-35.732,-29.344,-242.162,65.460,-366.903,-330.063,-8.500,0.760,-14.220
293,48896.172000,-31.816,-29.344,-244.139,69.268,-357.265,-329.157,-4.500,11.760,-8.220
294,48896.178000,-30.837,-31.368,-243.151,67.408,-364.017,-331.085,-1.500,-9.240,-6.220
295,48896.201000,-34.753,-31.368,-244.139,64.437,-360.121,-331.037,-1.500,-29.240,-0.220
296,48896.213000,-38.669,-29.344,-243.151,70.317,-363.078,-330.154,5.500,1.760,2.780
297,48896.236000,-33.774,-30.356,-242.162,69.313,-364.038,-328.166,13.500,28.760,4.780
298,48896.265000,-30.837,-31.368,-243.151,70.317,-363.078,-330.154,7.500,4.760,-2.220
299,48896.280000,-32.795,-30.356,-242.162,61.502,-363.966,-329.012,4.500,-12.240,-7.220
300,48896.302000,-37.690,-28.332,-241.174,69.286,-359.200,-329.155,0.500,-13.240,-12.220
301,48896.318000,-33.774,-29.344,-241.174,70.343,-362.108,-332.124,8.500,5.760,-3.220
302,48896.346000,-33.774,-30.356,-240.185,68.298,-358.224,-329.139,7.500,-3.240,-5.220
303,48896.361000,-34.753,-29.344,-241.174,67.408,-364.017,-331.085,7.500,0.760,0.780
304,48896.378000,-34.753,-31.368,-242.162,75.174,-361.188,-329.257,12.500,7.760,7.780
305,48896.401000,-34.753,-30.356,-241.174,68.333,-358.222,-331.109,9.500,-3.240,2.780
306,48896.423000,-34.753,-31.368,-242.162,65.363,-358.197,-329.087,6.500,-0.240,1.780
307,48896.441000,-32.795,-32.379,-241.174,73.192,-362.140,-327.252,2.500,-5.240,-0.220
308,48896.463000,-34.753,-32.379,-240.185,64.481,-364.958,-331.033,1.500,-13.240,-3.220
309,48896.483000,-35.732,-31.368,-244.139,68.290,-359.192,-328.153,3.500,-13.240,-4.220
310,48896.506000,-35.732,-31.368,-242.162,69.338,-361.133,-331.123,11.500,4.760,-2.220
311,48896.528000,-35.732,-30.356,-242.162,64.367,-358.189,-328.085,12.500,0.760,-4.220
312,48896.542000,-35.732,-31.368,-243.151,65.424,-361.097,-331.054,8.500,-4.240,-12.220
313,48896.590000,-35.732,-31.368,-242.162,71.209,-361.156,-326.234,6.500,-9.240,-13.220
314,48896.592000,-33.774,-31.368,-242.162,72.222,-361.163,-328.221,6.500,-17.240,-15.220
315,48896.614000,-38.669,-30.356,-242.162,70.222,-362.115,-325.231,8.500,-5.240,-15.220
316,48896.616000,-36.711,-31.368,-241.174,70.282,-361.144,-329.171,11.500,14.760,-13.220
317,48896.646000,-33.774,-31.368,-240.185,67.294,-357.249,-328.138,12.500,5.760,-16.220
318,48896.665000,-33.774,-33.391,-242.162,66.333,-359.174,-328.119,8.500,-14.240,-19.220
319,48896.692000,-33.774,-33.391,-241.174,72.204,-359.228,-328.223,10.500,-3.240,-17.220
320,48896.707000,-31.816,-31.368,-239.197,73.174,-360.205,-327.254,10.500,-3.240,-11.220
321,48896.725000,-32.795,-32.379,-242.162,65.354,-359.165,-328.101,4.500,-6.240,-11.220
322,48896.752000,-32.795,-31.368,-239.197,69.243,-362.106,-325.213,-0.500,-7.240,-17.220
323,48896.770000,-33.774,-32.379,-240.185,70.256,-360.177,-328.187,-4.500,-7.240,-17.220
324,48896.790000,-32.795,-30.356,-241.174,72.222,-361.163,-328.221,-7.500,2.760,-14.220
325,48896.815000,-31.816,-30.356,-241.174,70.256,-362.113,-327.200,-10.500,-2.240,-5.220
326,48896.842000,-32.795,-32.379,-242.162,72.188,-363.100,-325.264,-10.500,-17.240,-3.220
327,48896.862000,-36.711,-31.368,-242.162,73.235,-361.170,-330.207,-2.500,-8.240,0.780
328,48896.875000,-35.732,-31.368,-243.151,66.325,-360.143,-327.133,6.500,23.760,6.780
329,48896.892000,-31.816,-32.379,-242.162,67.407,-362.082,-332.072,6.500,15.760,7.780
330,48896.915000,-31.816,-32.379,-241.174,73.166,-361.173,-326.268,-1.500,-15.240,-0.220
331,48896.942000,-35.732,-32.379,-241.174,73.200,-359.236,-329.225,-3.500,-4.240,-5.220
332,48896.957000,-36.711,-31.368,-241.174,72.282,-360.191,-332.161,-0.500,26.760,-3.220
333,48896.977000,-32.795,-32.379,-242.162,67.338,-362.086,-328.133,-3.500,7.760,0.780
334,48897.0,-29.859,-33.391,-242.162,69.356,-365.004,-330.134,-12.500,-11.240,-3.220
335,48897.22000,-34.753,-32.379,-239.197,73.244,-364.073,-329.220,-13.500,-25.240,-2.220
336,48897.43000,-37.690,-32.379,-241.174,69.286,-359.200,-329.155,-6.500,8.760,5.780
337,48897.60000,-35.732,-32.379,-241.174,72.256,-361.161,-330.190,-3.500,32.760,8.780
338,48897.87000,-32.795,-31.368,-241.174,74.231,-361.177,-331.209,-10.500,8.760,2.780
339,48897.102000,-33.774,-31.368,-240.185,65.363,-358.197,-329.087,-17.500,-13.240,2.780
340,48897.122000,-35.732,-32.379,-241.174,67.364,-361.116,-330.104,-16.500,-9.240,5.780
341,48897.144000,-34.753,-32.379,-241.174,62.436,-359.138,-329.034,-11.500,8.760,12.780
342,48897.175000,-34.753,-32.379,-242.162,72.265,-360.192,-331.176,-8.500,24.760,13.780
343,48897.207000,-30.837,-30.356,-243.151,67.329,-361.118,-328.134,-8.500,28.760,10.780
344,48897.221000,-32.795,-31.368,-242.162,67.416,-361.113,-333.058,-6.500,17.760,5.780
345,48897.230000,-35.732,-31.368,-243.151,68.317,-364.030,-327.164,-13.500,-10.240,-4.220
346,48897.247000,-38.669,-27.320,-243.151,67.442,-362.080,-334.042,-9.500,-8.240,-5.220
347,48897.265000,-33.774,-29.344,-244.139,66.341,-358.206,-329.104,3.500,20.760,4.780
348,48897.292000,-31.816,-31.368,-241.174,64.384,-358.188,-329.070,7.500,12.760,9.780
349,48897.312000,-36.711,-29.344,-240.185,70.325,-360.173,-332.126,6.500,-5.240,9.780
350,48897.335000,-36.711,-31.368,-239.197,68.307,-357.255,-330.125,5.500,15.760,5.780
351,48897.352000,-32.795,-31.368,-239.197,66.454,-359.168,-335.012,1.500,33.760,-5.220
352,48897.375000,-31.816,-32.379,-239.197,62.488,-359.135,-331.989,-3.500,18.760,-13.220
353,48897.392000,-33.774,-28.332,-239.197,73.269,-359.232,-333.164,-18.500,-4.240,-31.220
354,48897.410000,-31.816,-29.344,-240.185,65.328,-356.263,-328.104,-24.500,-6.240,-33.220
355,48897.432000,-30.837,-30.356,-243.151,65.441,-361.096,-332.038,-24.500,-16.240,-16.220
356,48897.458000,-32.795,-29.344,-242.162,67.381,-361.115,-331.088,-21.500,-23.240,1.780
357,48897.477000,-35.732,-28.332,-243.151,68.342,-359.189,-331.108,-11.500,-3.240,14.780
358,48897.510000,-32.795,-29.344,-245.127,65.345,-356.262,-329.089,-0.500,30.760,23.780
359,48897.523000,-28.880,-30.356,-245.127,73.191,-358.268,-329.226,0.500,27.760,12.780
360,48897.542000,-29.859,-30.356,-247.104,68.307,-357.255,-330.125,-6.500,-6.240,0.780
361,48897.559000,-34.753,-29.344,-244.139,70.342,-360.172,-333.111,-7.500,-18.240,-6.220
362,48897.568000,-33.774,-30.356,-248.093,67.311,-357.248,-329.123,-0.500,-14.240,-5.220
363,48897.598000,-34.753,-28.332,-245.127,64.385,-360.124,-328.083,7.500,8.760,0.780
364,48897.620000,-31.816,-28.332,-241.174,70.342,-360.172,-333.111,17.500,25.760,10.780
365,48897.637000,-30.837,-28.332,-241.174,70.317,-361.142,-331.140,16.500,17.760,15.780
366,48897.660000,-29.859,-29.344,-239.197,66.402,-359.171,-332.058,16.500,4.760,16.780
367,48897.676000,-32.795,-30.356,-235.243,67.364,-361.116,-330.104,9.500,-4.240,18.780
368,48897.697000,-33.774,-32.379,-237.220,69.372,-359.195,-334.079,1.500,4.760,25.780
369,48897.720000,-30.837,-32.379,-238.208,66.420,-361.105,-332.056,-8.500,4.760,26.780
370,48897.736000,-29.859,-32.379,-239.197,63.484,-359.143,-332.991,-14.500,-3.240,25.780
371,48897.758000,-32.795,-30.356,-239.197,65.381,-360.132,-329.085,-20.500,-21.240,25.780
372,48897.782000,-36.711,-30.356,-243.151,69.329,-358.230,-332.111,-21.500,-3.240,22.780
373,48897.805000,-33.774,-31.368,-244.139,66.402,-357.235,-333.044,-14.500,20.760,25.780
374,48897.821000,-30.837,-28.332,-245.127,64.445,-357.217,-333.010,-13.500,10.760,22.780
375,48897.841000,-32.795,-27.320,-243.151,61.510,-361.062,-330.984,-17.500,-13.240,13.780
376,48897.862000,-35.732,-29.344,-244.139,64.436,-358.185,-332.024,-16.500,-3.240,9.780
377,48897.885000,-36.711,-29.344,-245.127,63.448,-355.273,-332.994,-9.500,19.760,7.780
378,48897.907000,-32.795,-28.332,-244.139,66.375,-356.268,-332.061,-6.500,17.760,8.780
379,48897.933000,-33.774,-28.332,-246.116,66.428,-360.137,-333.042,-4.500,7.760,6.780
380,48897.942000,-34.753,-29.344,-244.139,64.402,-358.187,-330.055,3.500,0.760,5.780
381,48897.980000,-35.732,-29.344,-243.151,63.458,-358.176,-332.007,11.500,6.760,-0.220
382,48898.12000,-32.795,-29.344,-242.162,64.410,-357.219,-331.040,9.500,3.760,-4.220
383,48898.12000,-33.774,-28.332,-243.151,62.540,-359.132,-334.943,4.500,-3.240,-4.220
384,48898.35000,-32.795,-29.344,-241.174,70.334,-361.141,-332.125,2.500,-2.240,-8.220
385,48898.47000,-36.711,-28.332,-240.185,61.510,-359.126,-331.971,-0.500,4.760,-19.220
386,48898.67000,-34.753,-29.344,-241.174,66.419,-359.170,-333.042,-2.500,14.760,-22.220
387,48898.91000,-34.753,-31.368,-243.151,66.385,-359.171,-331.073,-6.500,9.760,-28.220
388,48898.122000,-30.837,-29.344,-243.151,63.431,-355.274,-332.010,-4.500,1.760,-31.220
389,48898.137000,-30.837,-28.332,-241.174,61.413,-354.292,-329.022,-7.500,-24.240,-33.220
390,48898.155000,-31.816,-27.320,-242.162,66.368,-359.172,-330.088,-0.500,-11.240,-21.220
391,48898.176000,-29.859,-29.344,-241.174,66.385,-361.107,-330.086,6.500,6.760,-11.220
392,48898.191000,-28.880,-29.344,-240.185,62.523,-359.133,-333.958,7.500,-0.240,-6.220
393,48898.212000,-29.859,-30.356,-241.174,71.287,-362.119,-330.172,3.500,1.760,-4.220
394,48898.230000,-29.859,-29.344,-241.174,67.441,-360.144,-335.028,1.500,13.760,3.780
395,48898.257000,-25.943,-30.356,-240.185,64.384,-356.252,-330.057,-6.500,-21.240,1.780
396,48898.275000,-26.922,-31.368,-240.185,66.402,-357.235,-333.044,-14.500,-45.240,2.780
397,48898.302000,-32.795,-30.356,-241.174,66.393,-358.203,-332.059,-12.500,-31.240,6.780
398,48898.330000,-36.711,-29.344,-240.185,69.363,-358.228,-334.080,-5.500,19.760,20.780
399,48898.348000,-32.795,-30.356,-242.162,68.315,-356.287,-331.111,-2.500,44.760,25.780
400,48898.367000,-29.859,-29.344,-242.162,62.488,-359.135,-331.989,-10.500,14.760,13.780
401,48898.385000,-29.859,-30.356,-243.151,66.489,-359.166,-336.982,-17.500,-26.240,-6.220
402,48898.402000,-35.732,-29.344,-241.174,68.394,-361.122,-333.075,-17.500,-30.240,-10.220
403,48898.425000,-37.690,-29.344,-243.151,64.498,-361.086,-333.991,-5.500,-7.240,-2.220
404,48898.456000,-35.732,-28.332,-243.151,60.523,-360.085,-330.968,-1.500,-1.240,1.780
405,48898.459000,-32.795,-29.344,-244.139,63.475,-358.175,-332.992,0.500,-2.240,2.780
406,48898.480000,-33.774,-31.368,-244.139,63.440,-358.177,-331.022,0.500,-5.240,0.780
407,48898.502000,-34.753,-30.356,-243.151,61.510,-361.062,-330.984,-4.500,-20.240,-14.220
408,48898.520000,-33.774,-29.344,-242.162,67.372,-360.148,-331.089,-1.500,-9.240,-15.220
409,48898.542000,-32.795,-30.356,-240.185,66.420,-361.105,-332.056,5.500,-7.240,-16.220
410,48898.560000,-32.795,-32.379,-240.185,66.455,-361.103,-334.025,-0.500,-20.240,-17.220
411,48898.587000,-30.837,-30.356,-241.174,61.518,-358.158,-332.957,-4.500,-15.240,-22.220
412,48898.610000,-30.837,-29.344,-241.174,60.505,-358.151,-330.970,0.500,-18.240,-15.220
413,48898.625000,-31.816,-30.356,-241.174,62.480,-360.103,-331.003,-5.500,-25.240,-11.220
414,48898.647000,-34.753,-28.332,-241.174,63.441,-360.113,-330.035,-1.500,-23.240,13.780
415,48898.670000,-35.732,-27.320,-240.185,66.394,-360.139,-331.072,-0.500,-11.240,16.780
416,48898.687000,-32.795,-28.332,-242.162,67.355,-362.085,-329.118,4.500,5.760,7.780
417,48898.710000,-31.816,-31.368,-242.162,69.295,-360.168,-329.154,0.500,-25.240,-6.220
418,48898.730000,-36.711,-29.344,-241.174,61.458,-361.065,-328.030,-11.500,-52.240,-25.220
419,48898.757000,-36.711,-28.332,-240.185,67.338,-362.086,-328.133,-9.500,-22.240,-19.220
420,48898.776000,-32.795,-32.379,-242.162,67.311,-357.248,-329.123,1.500,0.760,-3.220
421,48898.798000,-32.795,-31.368,-242.162,69.234,-361.139,-325.214,-1.500,-12.240,-12.220
422,48898.824000,-33.774,-29.344,-241.174,65.416,-362.066,-330.068,2.500,-1.240,-12.220
423,48898.837000,-30.837,-30.356,-242.162,59.501,-361.047,-327.996,4.500,21.760,-3.220
424,48898.854000,-30.837,-31.368,-240.185,67.355,-362.085,-329.118,2.500,16.760,2.780
425,48898.871000,-30.837,-30.356,-240.185,63.389,-358.180,-328.068,-2.500,-9.240,3.780
426,48898.898000,-31.816,-28.332,-240.185,64.359,-361.093,-326.113,-2.500,-14.240,9.780
427,48898.913000,-31.816,-30.356,-239.197,69.312,-362.102,-329.152,-0.500,-12.240,24.780
428,48898.936000,-33.774,-30.356,-241.174,69.321,-363.070,-329.151,-5.500,-9.240,23.780
429,48898.953000,-35.732,-30.356,-240.185,66.394,-362.075,-330.085,-3.500,11.760,31.780
430,48898.978000,-33.774,-30.356,-241.174,61.449,-360.097,-328.031,-9.500,15.760,26.780
431,48898.996000,-34.753,-30.356,-240.185,68.307,-359.191,-329.138,-17.500,4.760,12.780
432,48899.18000,-35.732,-28.332,-242.162,65.469,-365.934,-331.049,-23.500,-4.240,2.780
433,48899.41000,-34.753,-27.320,-244.139,60.505,-358.151,-330.970,-24.500,-11.240,1.780
434,48899.78000,-35.732,-30.356,-244.139,70.265,-363.081,-327.199,-22.500,-17.240,2.780
435,48899.95000,-37.690,-28.332,-244.139,63.433,-361.082,-329.050,-18.500,0.760,-0.220
436,48899.124000,-35.732,-27.320,-245.127,60.541,-362.020,-330.966,-9.500,22.760,3.780
437,48899.126000,-31.816,-29.344,-245.127,68.376,-359.187,-333.077,-9.500,-11.240,-2.220
438,48899.145000,-36.711,-28.332,-247.104,66.385,-361.107,-330.086,-6.500,-37.240,-6.220
439,48899.167000,-38.669,-29.344,-243.151,61.519,-360.093,-331.970,0.500,2.760,1.780
440,48899.182000,-33.774,-27.320,-243.151,67.364,-361.116,-330.104,6.500,24.760,2.780
441,48899.205000,-30.837,-29.344,-246.116,60.497,-361.055,-328.998,4.500,5.760,-7.220
442,48899.222000,-31.816,-27.320,-242.162,58.610,-362.969,-331.915,-2.500,-27.240,-13.220
443,48899.242000,-35.732,-27.320,-241.174,58.575,-361.035,-330.933,-1.500,-16.240,-12.220
444,48899.265000,-34.753,-27.320,-240.185,60.558,-362.019,-331.951,3.500,1.760,0.780
445,48899.282000,-32.795,-27.320,-241.174,68.351,-362.092,-330.120,-1.500,-6.240,-1.220
446,48899.305000,-31.816,-28.332,-242.162,65.381,-362.068,-328.098,-8.500,-15.240,-2.220
447,48899.325000,-33.774,-27.320,-242.162,63.468,-363.015,-330.032,-10.500,-27.240,-6.220
448,48899.347000,-36.711,-29.344,-243.151,60.523,-360.085,-330.968,-9.500,-10.240,-8.220
449,48899.370000,-36.711,-27.320,-244.139,62.436,-357.202,-330.021,1.500,22.760,-7.220
450,48899.390000,-33.774,-27.320,-242.162,64.428,-361.089,-330.052,4.500,26.760,-4.220
451,48899.412000,-34.753,-28.332,-242.162,66.368,-361.108,-329.102,5.500,15.760,-3.220
452,48899.430000,-31.816,-26.308,-242.162,60.558,-363.955,-330.964,4.500,4.760,-5.220
453,48899.453000,-29.859,-26.308,-243.151,62.472,-363.007,-329.030,0.500,-31.240,-0.220
454,48899.475000,-36.711,-28.332,-242.162,65.434,-365.936,-329.079,-0.500,-36.240,-0.220
455,48899.495000,-39.648,-26.308,-241.174,66.360,-364.012,-327.129,13.500,21.760,7.780
456,48899.520000,-36.711,-27.320,-239.197,62.410,-356.236,-329.037,16.500,55.760,14.780
457,48899.540000,-31.816,-27.320,-241.174,64.394,-361.091,-328.082,4.500,10.760,6.780
458,48899.552000,-30.837,-30.356,-241.174,66.360,-364.012,-327.129,-8.500,-40.240,-4.220
459,48899.582000,-36.711,-28.332,-240.185,61.441,-363.001,-326.059,-8.500,-41.240,-5.220
460,48899.603000,-37.690,-26.308,-242.162,61.476,-361.064,-329.015,-5.500,-15.240,-2.220
461,48899.618000,-37.690,-30.356,-242.162,64.429,-363.025,-329.065,-2.500,5.760,1.780
462,48899.638000,-36.711,-29.344,-243.151,70.290,-360.175,-330.156,0.500,28.760,3.780
463,48899.661000,-33.774,-28.332,-242.162,61.483,-358.160,-330.987,2.500,28.760,5.780
464,48899.678000,-31.816,-27.320,-242.162,60.506,-362.022,-328.997,-4.500,-7.240,-2.220
465,48899.696000,-32.795,-29.344,-242.162,63.477,-365.919,-329.045,-5.500,-31.240,-0.220
466,48899.721000,-34.753,-28.332,-242.162,65.354,-359.165,-328.101,-1.500,-14.240,-7.220
467,48899.737000,-37.690,-27.320,-242.162,60.523,-360.085,-330.968,8.500,23.760,1.780
468,48899.765000,-34.753,-29.344,-241.174,64.394,-361.091,-328.082,7.500,26.760,1.780
469,48899.793000,-32.795,-30.356,-241.174,68.333,-358.222,-331.109,1.500,2.760,-2.220
470,48899.811000,-30.837,-29.344,-240.185,66.403,-361.106,-331.071,-4.500,-27.240,-1.220
471,48899.840000,-33.774,-28.332,-241.174,61.484,-362.031,-329.014,-0.500,-23.240,4.780
472,48899.842000,-31.816,-30.356,-243.151,63.485,-364.950,-330.030,3.500,-16.240,13.780
473,48899.863000,-35.732,-29.344,-241.174,66.429,-364.008,-331.068,-0.500,-15.240,9.780
474,48899.881000,-35.732,-28.332,-241.174,61.492,-359.127,-330.986,-4.500,-0.240,7.780
475,48899.902000,-31.816,-30.356,-243.151,61.467,-362.032,-328.029,-1.500,11.760,1.780
476,48899.920000,-31.816,-30.356,-243.151,63.468,-364.951,-329.046,-5.500,-16.240,-2.220
477,48899.942000,-35.732,-31.368,-243.151,64.403,-363.995,-327.094,-8.500,-28.240,-3.220
478,48899.960000,-36.711,-30.356,-243.151,59.520,-364.918,-327.007,-3.500,-19.240,7.780
479,48899.986000,-35.732,-28.332,-243.151,59.536,-361.045,-329.965,5.500,8.760,16.780
480,48900.8000,-34.753,-28.332,-243.151,60.462,-361.057,-327.028,7.500,14.760,16.780
481,48900.28000,-30.837,-28.332,-243.151,66.299,-361.112,-325.162,9.500,14.760,15.780
482,48900.47000,-30.837,-28.332,-243.151,63.424,-362.050,-328.064,11.500,-10.240,12.780
483,48900.68000,-33.774,-27.320,-243.151,62.471,-361.072,-330.017,8.500,-33.240,13.780
484,48900.105000,-36.711,-26.308,-242.162,56.575,-361.988,-327.943,16.500,-9.240,25.780
485,48900.120000,-35.732,-30.356,-242.162,62.463,-363.976,-328.045,19.500,21.760,33.780
486,48900.133000,-33.774,-32.379,-240.185,60.480,-361.056,-328.013,21.500,29.760,36.780
487,48900.156000,-35.732,-30.356,-241.174,62.472,-363.007,-329.030,21.500,26.760,29.780
488,48900.173000,-36.711,-28.332,-239.197,62.455,-363.008,-328.046,15.500,18.760,24.780
489,48900.191000,-32.795,-28.332,-239.197,59.527,-362.013,-328.979,11.500,-0.240,19.780
490,48900.208000,-36.711,-29.344,-241.174,60.436,-360.090,-326.044,7.500,-42.240,13.780
491,48900.222000,-43.564,-29.344,-240.185,65.390,-361.099,-329.084,7.500,-33.240,9.780
492,48900.241000,-43.564,-27.320,-240.185,62.403,-363.011,-325.091,14.500,34.760,18.780
493,48900.273000,-33.774,-29.344,-239.197,60.514,-361.054,-329.982,10.500,49.760,15.780
494,48900.291000,-30.837,-30.356,-240.185,58.593,-364.906,-329.944,-6.500,-25.240,-3.220
495,48900.308000,-37.690,-31.368,-240.185,59.450,-362.986,-324.055,-11.500,-49.240,-10.220
496,48900.331000,-41.606,-29.344,-240.185,60.455,-363.961,-325.056,-7.500,-25.240,-13.220
497,48900.353000,-36.711,-29.344,-239.197,59.493,-362.015,-327.010,3.500,27.760,-4.220
498,48900.376000,-32.795,-29.344,-240.185,64.350,-360.126,-326.114,-5.500,25.760,-7.220
499,48900.396000,-30.837,-28.332,-242.162,66.299,-361.112,-325.162,-17.500,-7.240,-9.220
500,48900.423000,-33.774,-28.332,-242.162,58.523,-361.038,-327.978,-25.500,-30.240,-21.220
501,48900.446000,-37.690,-27.320,-243.151,57.501,-361.999,-325.006,-21.500,-18.240,-16.220
502,48900.459000,-36.711,-26.308,-245.127,66.430,-365.944,-330.081,-11.500,21.760,-11.220
503,48900.476000,-32.795,-28.332,-246.116,67.365,-364.988,-328.130,-1.500,23.760,1.780
504,48900.497000,-32.795,-28.332,-245.127,60.454,-362.025,-326.042,1.500,15.760,2.780
505,48900.523000,-33.774,-28.332,-244.139,57.563,-364.900,-326.972,3.500,-6.240,-3.220
506,48900.556000,-38.669,-28.332,-244.139,60.541,-363.956,-329.980,3.500,-6.240,-2.220
507,48900.575000,-36.711,-28.332,-243.151,65.320,-361.103,-325.145,10.500,17.760,-4.220
508,48900.588000,-33.774,-27.320,-243.151,61.519,-360.093,-331.970,7.500,9.760,-12.220
509,48900.611000,-34.753,-29.344,-242.162,64.402,-360.123,-329.068,2.500,-19.240,-12.220
510,48900.628000,-38.669,-27.320,-241.174,65.390,-361.099,-329.084,8.500,-0.240,-12.220
511,48900.646000,-38.669,-27.320,-241.174,64.446,-363.024,-330.050,16.500,25.760,-9.220
512,48900.668000,-33.774,-29.344,-242.162,59.519,-361.046,-328.980,13.500,11.760,-14.220
513,48900.688000,-31.816,-29.344,-242.162,59.536,-362.981,-328.978,10.500,-8.240,-14.220
514,48900.711000,-34.753,-31.368,-242.162,60.462,-361.057,-327.028,5.500,-20.240,-12.220
515,48900.740000,-36.711,-30.356,-240.185,62.498,-362.038,-331.001,8.500,2.760,-4.220
516,48900.750000,-35.732,-28.332,-240.185,64.384,-358.188,-329.070,7.500,18.760,-6.220
517,48900.770000,-32.795,-30.356,-239.197,65.416,-364.002,-329.081,-0.500,11.760,-11.220
518,48900.797000,-33.774,-32.379,-241.174,63.476,-362.047,-331.018,-14.500,-5.240,-24.220
519,48900.807000,-35.732,-30.356,-240.185,63.503,-364.949,-331.015,-18.500,6.760,-24.220
520,48900.830000,-36.711,-29.344,-242.162,56.556,-358.117,-328.931,-11.500,39.760,-10.220
521,48900.847000,-33.774,-31.368,-241.174,64.454,-360.120,-332.022,-9.500,35.760,-8.220
522,48900.867000,-30.837,-31.368,-243.151,62.419,-361.075,-327.063,-12.500,23.760,-10.220
523,48900.900000,-29.859,-29.344,-245.127,66.403,-363.042,-330.084,-12.500,-9.240,-8.220
524,48900.917000,-35.732,-29.344,-242.162,58.583,-360.067,-331.918,-9.500,-13.240,-10.220
525,48900.940000,-36.711,-29.344,-243.151,62.437,-361.074,-328.048,-1.500,19.760,-8.220
526,48900.960000,-31.816,-28.332,-245.127,61.440,-357.194,-329.019,7.500,33.760,-4.220
527,48900.995000,-28.880,-27.320,-244.139,66.377,-362.076,-329.101,3.500,-8.240,-6.220
528,48901.14000,-30.837,-28.332,-242.162,66.368,-361.108,-329.102,-1.500,-34.240,-5.220
529,48901.27000,-34.753,-29.344,-241.174,66.360,-362.077,-328.116,5.500,-3.240,3.780
530,48901.36000,-34.753,-30.356,-240.185,62.462,-360.104,-330.018,5.500,20.760,6.780
531,48901.61000,-32.795,-29.344,-241.174,61.440,-359.130,-328.032,4.500,23.760,7.780
532,48901.83000,-29.859,-29.344,-241.174,60.549,-361.052,-331.952,4.500,8.760,-0.220
533,48901.101000,-32.795,-28.332,-239.197,65.372,-359.165,-329.086,-2.500,-18.240,-5.220
534,48901.123000,-34.753,-30.356,-243.151,65.389,-359.164,-330.071,-6.500,-14.240,3.780
535,48901.146000,-33.774,-31.368,-242.162,60.480,-361.056,-328.013,-0.500,1.760,9.780
536,48901.163000,-33.774,-29.344,-240.185,61.545,-362.996,-331.967,4.500,-2.240,7.780
537,48901.185000,-33.774,-29.344,-240.185,60.470,-358.153,-329.001,5.500,-3.240,11.780
538,48901.205000,-28.880,-28.332,-234.255,61.492,-359.127,-330.986,-1.500,-22.240,13.780
539,48901.233000,-32.795,-29.344,-231.290,63.450,-361.081,-330.034,-19.500,-39.240,21.780
540,48901.251000,-32.795,-32.379,-233.266,65.416,-364.002,-329.081,-28.500,-60.240,27.780
541,48901.268000,-32.795,-32.379,-238.208,63.476,-362.047,-331.018,-46.500,-48.240,33.780
542,48901.286000,-35.732,-30.356,-244.139,58.497,-362.007,-326.008,-64.500,-43.240,27.780
543,48901.310000,-37.690,-27.320,-246.116,64.437,-362.057,-330.051,-63.500,-24.240,14.780
544,48901.327000,-36.711,-28.332,-247.104,61.477,-364.935,-327.042,-50.500,12.760,6.780
545,48901.345000,-33.774,-27.320,-249.081,58.540,-361.037,-328.963,-33.500,52.760,2.780
546,48901.370000,-31.816,-26.308,-249.081,56.557,-360.053,-327.945,-22.500,47.760,3.780
547,48901.385000,-29.859,-28.332,-248.093,57.553,-361.997,-327.960,-13.500,14.760,8.780
548,48901.405000,-33.774,-27.320,-246.116,59.597,-363.945,-331.932,-6.500,-1.240,15.780
549,48901.432000,-36.711,-26.308,-244.139,55.622,-361.009,-329.896,-0.500,-19.240,24.780
550,48901.462000,-38.669,-26.308,-241.174,54.643,-361.000,-329.879,14.500,-6.240,45.780
551,48901.476000,-35.732,-26.308,-241.174,60.523,-360.085,-330.968,23.500,31.760,76.780
552,48901.495000,-30.837,-25.296,-240.185,62.542,-364.939,-331.983,22.500,35.760,88.780
553,48901.517000,-35.732,-28.332,-240.185,54.695,-360.998,-332.833,8.500,7.760,53.780
554,48901.523000,-40.627,-29.344,-239.197,53.683,-362.926,-329.859,-9.500,-6.240,11.780
555,48901.565000,-38.669,-29.344,-240.185,55.578,-360.044,-327.927,-18.500,26.760,-29.220
556,48901.567000,-34.753,-25.296,-240.185,53.700,-360.990,-331.831,-28.500,39.760,-54.220
557,48901.594000,-29.859,-26.308,-242.162,55.586,-357.140,-329.900,-34.500,32.760,-48.220
558,48901.616000,-29.859,-27.320,-242.162,57.648,-361.023,-333.870,-32.500,-16.240,-40.220
559,48901.636000,-33.774,-24.285,-244.139,60.445,-359.122,-327.030,-30.500,-42.240,-26.220
560,48901.661000,-37.690,-26.308,-241.174,51.682,-360.007,-328.843,-15.500,-5.240,-1.220
561,48901.676000,-36.711,-26.308,-243.151,53.638,-358.089,-329.864,-8.500,38.760,11.780
562,48901.690000,-32.795,-26.308,-246.116,60.540,-358.149,-332.940,-4.500,45.760,-4.220
563,48901.716000,-32.795,-28.332,-243.151,56.635,-361.016,-331.883,-11.500,15.760,-31.220
564,48901.736000,-41.606,-27.320,-244.139,57.605,-360.058,-331.901,-19.500,7.760,-50.220
565,48901.758000,-40.627,-24.285,-246.116,56.591,-356.179,-331.888,-13.500,53.760,-67.220
566,48901.796000,-33.774,-23.273,-248.093,55.691,-359.070,-334.822,-5.500,66.760,-76.220
567,48901.810000,-27.901,-23.273,-246.116,60.583,-357.178,-335.895,1.500,37.760,-79.220
568,48901.828000,-25.943,-26.308,-245.127,55.639,-359.073,-331.867,8.500,-25.240,-60.220
569,48901.843000,-33.774,-24.285,-242.162,62.470,-357.200,-331.990,18.500,-26.240,-26.220
570,48901.866000,-32.795,-23.273,-240.185,61.518,-358.158,-332.957,31.500,37.760,2.780
571,48901.887000,-27.901,-27.320,-240.185,62.522,-357.197,-334.945,30.500,42.760,16.780
572,48901.910000,-24.964,-27.320,-241.174,55.655,-355.200,-334.826,10.500,2.760,-9.220
573,48901.927000,-26.922,-25.296,-240.185,65.502,-360.125,-335.978,-1.500,-27.240,-22.220
574,48901.947000,-28.880,-28.332,-239.197,64.427,-355.282,-333.012,-10.500,-47.240,-21.220
575,48901.965000,-30.837,-28.332,-239.197,58.635,-360.064,-334.873,-13.500,-47.240,-19.220
576,48901.983000,-32.795,-26.308,-241.174,58.513,-358.135,-328.966,-18.500,-23.240,-9.220
577,48902.7000,-31.816,-24.285,-241.174,59.587,-359.106,-333.906,-13.500,11.760,12.780
578,48902.32000,-29.859,-27.320,-243.151,61.535,-358.157,-333.942,-9.500,26.760,23.780
579,48902.55000,-28.880,-27.320,-243.151,59.622,-359.104,-335.876,-3.500,17.760,26.780
580,48902.75000,-29.859,-26.308,-243.151,65.485,-362.062,-334.007,-3.500,-16.240,16.780
581,48902.87000,-31.816,-26.308,-242.162,59.562,-360.076,-331.936,-8.500,-28.240,15.780
582,48902.110000,-34.753,-29.344,-243.151,57.586,-356.187,-332.890,-6.500,-23.240,15.780
583,48902.132000,-33.774,-29.344,-242.162,56.555,-354.245,-330.905,-9.500,-18.240,0.780
584,48902.150000,-31.816,-25.296,-245.127,54.695,-360.998,-332.833,-9.500,-17.240,-9.220
585,48902.172000,-31.816,-27.320,-245.127,59.544,-358.141,-331.938,-15.500,-39.240,-20.220
586,48902.197000,-35.732,-27.320,-246.116,60.513,-357.182,-331.956,-15.500,-34.240,-25.220
587,48902.227000,-34.753,-25.296,-244.139,55.577,-356.172,-329.901,3.500,7.760,-10.220
588,48902.230000,-31.816,-25.296,-243.151,57.622,-361.993,-331.899,11.500,11.760,0.780
589,48902.248000,-28.880,-23.273,-243.151,58.609,-361.033,-332.902,7.500,-26.240,8.780
590,48902.272000,-31.816,-24.285,-243.151,61.527,-359.125,-332.956,5.500,-35.240,8.780
591,48902.293000,-34.753,-24.285,-243.151,55.621,-359.074,-330.883,5.500,-15.240,1.780
592,48902.315000,-35.732,-25.296,-242.162,57.639,-360.056,-333.871,6.500,14.760,4.780
593,48902.335000,-33.774,-28.332,-241.174,61.545,-362.996,-331.967,6.500,17.760,2.780
594,48902.362000,-29.859,-26.308,-242.162,63.492,-358.174,-333.976,0.500,-4.240,-4.220
595,48902.373000,-31.816,-27.320,-242.162,57.640,-363.927,-331.897,-2.500,-32.240,-6.220
596,48902.396000,-36.711,-25.296,-243.151,63.502,-363.013,-332.002,-3.500,-23.240,-10.220
597,48902.418000,-35.732,-26.308,-242.162,59.483,-359.112,-327.998,3.500,0.760,-6.220
598,48902.441000,-34.753,-25.296,-243.151,54.626,-359.066,-329.881,8.500,12.760,-7.220
599,48902.463000,-32.795,-27.320,-241.174,57.596,-361.026,-330.915,9.500,3.760,-7.220
600,48902.482000,-32.795,-27.320,-240.185,63.467,-361.080,-331.019,7.500,-14.240,-4.220
601,48902.515000,-32.795,-27.320,-241.174,61.510,-359.126,-331.971,2.500,-15.240,-0.220
602,48902.523000,-35.732,-27.320,-244.139,54.582,-358.100,-327.912,4.500,2.760,4.780
603,48902.546000,-35.732,-26.308,-240.185,57.639,-358.120,-334.857,11.500,55.760,14.780
604,48902.568000,-35.732,-26.308,-239.197,63.448,-355.273,-332.994,12.500,83.760,7.780
605,48902.596000,-25.943,-28.332,-239.197,59.579,-360.075,-332.920,4.500,43.760,-5.220
606,48902.603000,-30.837,-26.308,-239.197,55.613,-358.106,-330.884,-14.500,-30.240,-21.220
607,48902.621000,-34.753,-27.320,-241.174,57.613,-361.025,-331.900,-23.500,-58.240,-17.220
608,48902.648000,-34.753,-27.320,-244.139,61.510,-361.062,-330.984,-16.500,-22.240,-1.220
609,48902.677000,-33.774,-26.308,-241.174,61.501,-360.094,-330.985,-6.500,21.760,-0.220
610,48902.688000,-31.816,-27.320,-244.139,55.639,-361.008,-330.881,-4.500,22.760,6.780
611,48902.710000,-31.816,-27.320,-242.162,58.575,-361.035,-330.933,-4.500,19.760,9.780
612,48902.727000,-31.816,-27.320,-241.174,61.536,-360.092,-332.955,-10.500,-4.240,3.780
613,48902.746000,-32.795,-26.308,-243.151,57.596,-359.090,-331.902,-14.500,-36.240,-7.220
614,48902.767000,-34.753,-25.296,-242.162,55.639,-359.073,-331.867,-25.500,-54.240,-15.220
615,48902.790000,-36.711,-24.285,-241.174,62.437,-361.074,-328.048,-25.500,-43.240,-22.220
616,48902.807000,-34.753,-25.296,-242.162,57.596,-361.026,-330.915,-23.500,-17.240,-24.220
617,48902.826000,-32.795,-27.320,-244.139,58.583,-360.067,-331.918,-23.500,-13.240,-29.220
618,48902.843000,-33.774,-26.308,-245.127,57.657,-361.991,-333.869,-24.500,-6.240,-29.220
619,48902.868000,-33.774,-25.296,-246.116,59.562,-362.011,-330.949,-11.500,5.760,-21.220
620,48902.888000,-32.795,-25.296,-244.139,57.596,-361.026,-330.915,-6.500,21.760,-16.220
621,48902.911000,-28.880,-23.273,-247.104,59.570,-361.043,-331.935,3.500,11.760,-7.220
622,48902.943000,-29.859,-23.273,-244.139,62.471,-359.136,-331.004,9.500,-21.240,0.780
623,48902.976000,-33.774,-24.285,-242.162,62.461,-356.233,-331.991,13.500,-22.240,19.780
624,48902.985000,-32.795,-26.308,-242.162,63.423,-358.178,-330.037,18.500,15.760,36.780
625,48902.997000,-29.859,-26.308,-241.174,58.600,-360.066,-332.903,14.500,16.760,31.780
626,48903.20000,-31.816,-27.320,-241.174,58.557,-361.036,-329.948,-4.500,-22.240,12.780
627,48903.42000,-33.774,-27.320,-243.151,54.652,-360.032,-330.864,-11.500,-33.240,-3.220
628,48903.60000,-36.711,-26.308,-239.197,61.493,-361.063,-330.000,-14.500,-33.240,-21.220
629,48903.82000,-38.669,-26.308,-241.174,61.545,-362.996,-331.967,-19.500,-16.240,-21.220
630,48903.101000,-36.711,-25.296,-242.162,61.476,-363.000,-328.028,-14.500,22.760,-12.220
631,48903.122000,-30.837,-22.261,-242.162,58.645,-364.903,-332.898,-12.500,20.760,-12.220
632,48903.140000,-33.774,-21.249,-243.151,59.528,-363.949,-327.993,-19.500,-37.240,-22.220
633,48903.158000,-38.669,-24.285,-246.116,57.543,-357.158,-329.934,-16.500,-42.240,-21.220
634,48903.181000,-40.627,-25.296,-245.127,58.575,-361.035,-330.933,2.500,7.760,-14.220
635,48903.201000,-36.711,-26.308,-243.151,63.397,-357.212,-329.053,28.500,65.760,6.780
636,48903.242000,-34.753,-27.320,-243.151,57.570,-360.060,-329.932,34.500,84.760,17.780
637,48903.261000,-28.880,-27.320,-241.174,54.704,-360.029,-333.819,30.500,73.760,24.780
638,48903.265000,-27.901,-29.344,-243.151,65.441,-359.161,-333.025,18.500,22.760,20.780
639,48903.290000,-30.837,-27.320,-241.174,59.457,-358.146,-327.014,6.500,-19.240,9.780
640,48903.305000,-32.795,-25.296,-241.174,59.536,-361.045,-329.965,0.500,-37.240,-1.220
641,48903.330000,-31.816,-25.296,-243.151,62.471,-361.072,-330.017,-1.500,-43.240,-3.220
642,48903.345000,-34.753,-25.296,-243.151,61.554,-363.963,-331.966,2.500,-26.240,2.780
643,48903.367000,-34.753,-22.261,-241.174,58.548,-358.133,-330.936,8.500,5.760,6.780
644,48903.396000,-30.837,-22.261,-240.185,57.640,-361.992,-332.884,10.500,-3.240,10.780
645,48903.411000,-25.943,-26.308,-241.174,60.471,-360.088,-328.014,3.500,-61.240,2.780
646,48903.433000,-29.859,-27.320,-238.208,57.614,-364.897,-329.927,-2.500,-93.240,-1.220
647,48903.456000,-40.627,-28.332,-242.162,57.623,-365.864,-329.926,-13.500,-122.240,-1.220
648,48903.471000,-42.585,-29.344,-241.174,57.571,-365.867,-326.971,-7.500,-64.240,10.780
649,48903.491000,-40.627,-28.332,-244.139,61.555,-365.899,-330.980,-1.500,-5.240,3.780
650,48903.508000,-36.711,-27.320,-243.151,56.566,-362.956,-326.957,-2.500,4.760,-6.220
651,48903.522000,-36.711,-28.332,-244.139,56.627,-361.985,-330.897,-4.500,0.760,-12.220
652,48903.555000,-35.732,-25.296,-243.151,61.458,-361.065,-328.030,-0.500,18.760,-10.220
653,48903.570000,-35.732,-23.273,-243.151,60.532,-362.989,-329.980,4.500,9.760,-8.220
654,48903.587000,-33.774,-26.308,-243.151,55.587,-361.011,-327.926,5.500,-8.240,-7.220
655,48903.617000,-33.774,-26.308,-245.127,57.570,-361.996,-328.945,6.500,-11.240,-7.220
656,48903.634000,-36.711,-25.296,-244.139,54.678,-362.934,-330.861,10.500,-2.240,-4.220
657,48903.653000,-36.711,-25.296,-243.151,62.472,-364.943,-328.044,17.500,-1.240,5.780
658,48903.676000,-32.795,-25.296,-240.185,56.540,-360.054,-326.960,18.500,-19.240,-2.220
659,48903.693000,-33.774,-24.285,-242.162,59.536,-362.981,-328.978,14.500,-44.240,-7.220
660,48903.726000,-34.753,-23.273,-243.151,61.502,-363.966,-329.012,11.500,-40.240,-2.220
661,48903.745000,-36.711,-24.285,-243.151,63.416,-363.018,-327.078,16.500,-11.240,1.780
662,48903.763000,-37.690,-26.308,-243.151,63.406,-360.115,-328.066,28.500,32.760,9.780
663,48903.778000,-39.648,-28.332,-243.151,61.407,-363.003,-324.089,39.500,65.760,24.780
664,48903.796000,-34.753,-29.344,-242.162,59.520,-364.918,-327.007,43.500,61.760,25.780
665,48903.816000,-32.795,-30.356,-240.185,61.441,-361.066,-327.045,37.500,13.760,16.780
666,48903.838000,-31.816,-30.356,-240.185,64.403,-362.059,-328.081,24.500,-47.240,0.780
667,48903.861000,-39.648,-30.356,-237.220,57.518,-360.063,-326.977,12.500,-46.240,-14.220
668,48903.884000,-40.627,-30.356,-237.220,59.545,-363.948,-328.977,9.500,-5.240,-18.220
669,48903.906000,-37.690,-29.344,-240.185,62.429,-363.978,-326.075,5.500,13.760,-21.220
670,48903.929000,-34.753,-28.332,-237.220,62.498,-363.974,-330.014,-1.500,8.760,-17.220
671,48903.944000,-32.795,-27.320,-238.208,64.394,-361.091,-328.082,-6.500,-7.240,-10.220
672,48903.977000,-30.837,-28.332,-239.197,66.334,-363.046,-326.145,-15.500,-21.240,-5.220
673,48904.6000,-34.753,-27.320,-239.197,59.528,-365.885,-327.006,-16.500,-11.240,-5.220
674,48904.9000,-32.795,-26.308,-241.174,58.488,-361.040,-326.009,-15.500,16.760,-7.220
675,48904.21000,-32.795,-29.344,-243.151,64.420,-362.058,-329.066,-20.500,0.760,-4.220
676,48904.43000,-36.711,-27.320,-242.162,63.434,-364.953,-327.076,-26.500,-8.240,-10.220
677,48904.66000,-38.669,-27.320,-241.174,65.373,-364.972,-326.126,-18.500,17.760,0.780
678,48904.91000,-35.732,-28.332,-242.162,58.549,-363.940,-327.975,-6.500,39.760,13.780
679,48904.106000,-33.774,-27.320,-243.151,60.568,-366.858,-329.977,-7.500,30.760,12.780
680,48904.123000,-33.774,-27.320,-243.151,58.514,-360.071,-327.979,-13.500,-2.240,6.780
681,48904.146000,-37.690,-25.296,-243.151,62.420,-363.010,-326.076,-19.500,-40.240,-4.220
682,48904.162000,-38.669,-26.308,-244.139,60.524,-363.957,-328.995,-21.500,-39.240,-10.220
683,48904.186000,-37.690,-27.320,-245.127,64.411,-361.090,-329.067,-14.500,-3.240,-8.220
684,48904.208000,-34.753,-26.308,-243.151,57.536,-361.997,-326.975,-5.500,31.760,-5.220
685,48904.230000,-33.774,-27.320,-245.127,59.528,-365.885,-327.006,-3.500,20.760,-3.220
686,48904.252000,-32.795,-26.308,-243.151,59.545,-362.012,-329.964,1.500,8.760,5.780
687,48904.270000,-33.774,-25.296,-243.151,62.515,-362.037,-331.986,4.500,10.760,8.780
688,48904.290000,-32.795,-25.296,-242.162,62.489,-363.006,-330.015,7.500,10.760,13.780
689,48904.315000,-33.774,-28.332,-240.185,58.567,-363.939,-328.960,-0.500,7.760,7.780
690,48904.337000,-35.732,-27.320,-241.174,59.571,-362.979,-330.948,-0.500,22.760,1.780
691,48904.368000,-32.795,-28.332,-240.185,58.566,-360.068,-330.934,-1.500,30.760,1.780
692,48904.371000,-29.859,-27.320,-242.162,58.549,-362.004,-328.962,-3.500,29.760,10.780
693,48904.397000,-32.795,-26.308,-242.162,57.587,-360.059,-330.916,-8.500,-14.240,3.780
694,48904.423000,-38.669,-27.320,-242.162,65.416,-364.002,-329.081,-7.500,-28.240,2.780
695,48904.438000,-36.711,-28.332,-242.162,57.622,-361.993,-331.899,2.500,26.760,15.780
696,48904.465000,-31.816,-28.332,-242.162,56.591,-360.051,-329.914,3.500,28.760,15.780
697,48904.493000,-33.774,-28.332,-239.197,56.600,-359.083,-330.900,-8.500,-7.240,1.780
698,48904.507000,-32.795,-27.320,-241.174,57.640,-363.927,-331.897,-13.500,-19.240,-6.220
699,48904.511000,-31.816,-27.320,-241.174,64.420,-362.058,-329.066,-23.500,-54.240,-10.220
700,48904.538000,-34.753,-27.320,-241.174,60.550,-364.923,-329.979,-28.500,-64.240,-9.220
701,48904.561000,-39.648,-22.261,-241.174,58.557,-361.036,-329.948,-25.500,-37.240,1.780
702,48904.581000,-38.669,-23.273,-245.127,64.368,-362.061,-326.112,-12.500,8.760,9.780
703,48904.603000,-36.711,-26.308,-245.127,57.588,-361.995,-329.930,-4.500,30.760,7.780
704,48904.629000,-33.774,-24.285,-244.139,53.630,-359.058,-328.879,-2.500,22.760,-0.220
705,48904.647000,-31.816,-24.285,-244.139,59.536,-361.045,-329.965,-4.500,-10.240,-4.220
706,48904.663000,-36.711,-25.296,-244.139,64.376,-359.157,-328.084,-5.500,-22.240,-6.220
707,48904.681000,-35.732,-26.308,-245.127,53.639,-360.025,-328.878,1.500,-6.240,-1.220
708,48904.703000,-35.732,-26.308,-244.139,57.588,-361.995,-329.930,5.500,8.760,-2.220
709,48904.723000,-35.732,-23.273,-245.127,52.678,-361.951,-328.858,7.500,5.760,-5.220
710,48904.746000,-34.753,-24.285,-243.151,60.497,-359.119,-329.984,10.500,-7.240,-9.220
711,48904.763000,-31.816,-25.296,-244.139,57.536,-361.997,-326.975,10.500,-22.240,-13.220
712,48904.786000,-32.795,-25.296,-245.127,60.454,-360.089,-327.029,9.500,-42.240,-13.220
713,48904.808000,-29.859,-25.296,-248.093,61.511,-362.998,-329.998,14.500,-53.240,-1.220
714,48904.828000,-31.816,-24.285,-247.104,57.597,-362.962,-329.929,26.500,-58.240,0.780
715,48904.853000,-39.648,-25.296,-244.139,57.536,-363.933,-325.989,39.500,-22.240,9.780
716,48904.871000,-39.648,-26.308,-243.151,57.570,-361.996,-328.945,53.500,47.760,29.780
717,48904.888000,-35.732,-29.344,-240.185,63.397,-359.148,-328.067,44.500,63.760,33.780
718,48904.916000,-31.816,-29.344,-239.197,63.503,-364.949,-331.015,34.500,46.760,29.780
719,48904.936000,-33.774,-28.332,-238.208,57.536,-361.997,-326.975,17.500,-10.240,19.780
720,48904.955000,-37.690,-27.320,-238.208,65.416,-364.002,-329.081,3.500,-46.240,4.780
721,48904.975000,-39.648,-28.332,-237.220,56.575,-363.923,-326.956,-3.500,-36.240,3.780
722,48905.0,-41.606,-26.308,-240.185,62.490,-364.942,-329.028,2.500,-0.240,7.780
723,48905.11000,-40.627,-28.332,-239.197,60.463,-362.993,-326.041,6.500,29.760,2.780
724,48905.32000,-33.774,-26.308,-242.162,61.502,-363.966,-329.012,9.500,13.760,0.780
725,48905.53000,-25.943,-29.344,-243.151,65.407,-363.034,-329.082,1.500,-84.240,3.780
726,48905.76000,-29.859,-30.356,-244.139,56.584,-364.891,-326.955,1.500,-134.240,13.780
727,48905.98000,-36.711,-27.320,-243.151,58.542,-366.844,-326.003,7.500,-170.240,28.780
728,48905.119000,-44.543,-27.320,-241.174,64.405,-369.802,-324.134,20.500,-114.240,39.780
729,48905.136000,-46.501,-26.308,-240.185,61.390,-364.940,-322.118,18.500,-28.240,26.780
730,48905.158000,-41.606,-30.356,-241.174,57.555,-367.804,-325.000,2.500,5.760,-5.220
731,48905.185000,-37.690,-30.356,-242.162,57.512,-368.774,-322.045,-22.500,-9.240,-41.220
732,48905.217000,-41.606,-29.344,-242.162,63.348,-368.830,-320.179,-26.500,3.760,-56.220
733,48905.240000,-40.627,-28.332,-241.174,53.544,-362.934,-321.981,-13.500,9.760,-47.220
734,48905.257000,-36.711,-27.320,-243.151,61.399,-367.843,-321.130,-2.500,-20.240,-32.220
735,48905.263000,-37.690,-28.332,-244.139,62.439,-368.817,-324.101,6.500,-18.240,-7.220
736,48905.288000,-36.711,-28.332,-243.151,65.322,-366.911,-322.185,17.500,4.760,4.780
737,48905.305000,-35.732,-28.332,-241.174,67.331,-366.925,-325.174,24.500,19.760,19.780
738,48905.321000,-35.732,-28.332,-239.197,57.546,-368.772,-324.014,20.500,16.760,18.780
739,48905.343000,-35.732,-27.320,-238.208,57.503,-367.807,-322.046,10.500,8.760,15.780
740,48905.370000,-36.711,-30.356,-238.208,59.468,-364.920,-324.053,-4.500,-15.240,11.780
741,48905.387000,-37.690,-29.344,-240.185,58.481,-365.880,-323.050,-16.500,-19.240,2.780
742,48905.410000,-39.648,-28.332,-239.197,60.464,-366.864,-324.068,-12.500,2.760,10.780
743,48905.427000,-36.711,-29.344,-241.174,58.481,-365.880,-323.050,-10.500,24.760,24.780
744,48905.450000,-34.753,-29.344,-242.162,58.524,-366.845,-325.018,-9.500,21.760,30.780
745,48905.472000,-35.732,-28.332,-242.162,57.477,-366.840,-321.062,-7.500,-15.240,30.780
746,48905.487000,-43.564,-27.320,-243.151,61.442,-366.873,-324.085,-5.500,-44.240,28.780
747,48905.520000,-44.543,-27.320,-244.139,62.326,-365.919,-319.180,1.500,-3.240,24.780
748,48905.552000,-36.711,-29.344,-243.151,66.326,-367.886,-323.186,11.500,38.760,23.780
749,48905.561000,-38.669,-29.344,-240.185,55.519,-364.887,-322.014,2.500,6.760,12.780
750,48905.561000,-41.606,-29.344,-238.208,60.412,-364.931,-322.100,-9.500,-21.240,-3.220
751,48905.587000,-40.627,-29.344,-239.197,56.464,-368.769,-318.088,-7.500,-10.240,4.780
752,48905.611000,-37.690,-28.332,-238.208,56.524,-367.798,-322.028,-13.500,-17.240,2.780
753,48905.628000,-40.627,-26.308,-239.197,57.477,-366.840,-321.062,-20.500,-26.240,0.780
754,48905.648000,-40.627,-24.285,-239.197,62.405,-370.754,-321.144,-23.500,-14.240,6.780
755,48905.676000,-35.732,-26.308,-240.185,57.538,-369.741,-323.028,-18.500,5.760,12.780
756,48905.696000,-36.711,-26.308,-241.174,55.545,-365.853,-322.998,-20.500,-17.240,11.780
757,48905.718000,-38.669,-27.320,-240.185,54.602,-367.778,-323.963,-26.500,-36.240,14.780
758,48905.741000,-43.564,-27.320,-244.139,57.502,-363.935,-324.019,-26.500,-12.240,17.780
759,48905.756000,-41.606,-28.332,-245.127,61.442,-366.873,-324.085,-17.500,30.760,14.780
760,48905.773000,-38.669,-28.332,-244.139,54.593,-368.747,-322.978,-15.500,28.760,-0.220
761,48905.796000,-37.690,-26.308,-242.162,54.619,-365.841,-325.935,-19.500,-6.240,-5.220
762,48905.823000,-38.669,-26.308,-245.127,56.550,-368.764,-323.012,-16.500,-20.240,-4.220
763,48905.833000,-39.648,-25.296,-244.139,53.589,-367.771,-321.976,-8.500,-28.240,3.780
764,48905.852000,-41.606,-26.308,-244.139,59.469,-370.728,-321.093,0.500,-19.240,11.780
765,48905.875000,-41.606,-26.308,-246.116,56.585,-368.762,-324.982,8.500,9.760,14.780
766,48905.917000,-37.690,-26.308,-245.127,59.512,-367.822,-325.035,11.500,-2.240,10.780
767,48905.931000,-39.648,-27.320,-244.139,53.633,-370.672,-322.958,8.500,-37.240,-8.220
768,48905.947000,-42.585,-25.296,-245.127,53.641,-369.704,-323.944,8.500,-44.240,-10.220
769,48905.962000,-41.606,-26.308,-243.151,63.418,-370.761,-323.131,16.500,-16.240,-9.220
770,48905.985000,-39.648,-26.308,-242.162,61.452,-371.712,-322.111,17.500,-7.240,-9.220
771,48906.2000,-41.606,-26.308,-243.151,56.525,-369.734,-321.042,14.500,-7.240,-9.220
772,48906.26000,-38.669,-25.296,-241.174,52.593,-367.763,-320.974,15.500,9.760,-3.220
773,48906.47000,-38.669,-26.308,-237.220,56.516,-370.702,-320.056,20.500,16.760,4.780
774,48906.65000,-37.690,-26.308,-236.232,54.611,-370.681,-322.976,16.500,3.760,14.780
775,48906.87000,-39.648,-28.332,-237.220,60.430,-368.802,-321.112,8.500,-7.240,24.780
776,48906.105000,-40.627,-30.356,-240.185,57.529,-370.709,-322.043,-2.500,1.760,16.780
777,48906.127000,-42.585,-27.320,-240.185,61.408,-368.811,-321.129,-9.500,-5.240,-3.220
778,48906.145000,-41.606,-28.332,-239.197,62.378,-369.788,-320.161,-9.500,-6.240,-16.220
779,48906.172000,-40.627,-29.344,-240.185,60.473,-369.767,-323.080,-8.500,1.760,-16.220
780,48906.176000,-37.690,-26.308,-237.220,53.659,-373.575,-322.955,-10.500,-5.240,-12.220
781,48906.208000,-37.690,-27.320,-239.197,60.420,-365.899,-322.099,-17.500,-20.240,5.780
782,48906.226000,-39.648,-27.320,-240.185,55.502,-366.824,-320.042,-14.500,17.760,19.780
783,48906.248000,-40.627,-25.296,-239.197,55.599,-371.658,-322.992,-8.500,75.760,18.780
784,48906.268000,-32.795,-26.308,-241.174,58.516,-367.814,-324.032,-9.500,69.760,17.780
785,48906.296000,-32.795,-30.356,-240.185,55.598,-367.786,-324.965,-31.500,-8.240,-2.220
786,48906.315000,-36.711,-27.320,-242.162,52.593,-367.763,-320.974,-39.500,-40.240,-1.220
787,48906.343000,-43.564,-24.285,-243.151,54.611,-368.746,-323.962,-25.500,-21.240,7.780
788,48906.358000,-43.564,-25.296,-244.139,57.537,-367.805,-324.015,-11.500,9.760,14.780
789,48906.381000,-39.648,-25.296,-246.116,54.629,-370.680,-323.960,-7.500,16.760,12.780
790,48906.396000,-37.690,-24.285,-246.116,48.740,-368.692,-323.858,-2.500,5.760,17.780
791,48906.418000,-40.627,-27.320,-243.151,46.818,-370.608,-324.807,-2.500,-5.240,15.780
792,48906.441000,-42.585,-24.285,-241.174,49.640,-365.802,-320.924,3.500,9.760,13.780
793,48906.456000,-41.606,-25.296,-240.185,49.700,-364.831,-324.864,4.500,20.760,13.780
794,48906.478000,-39.648,-27.320,-239.197,49.683,-366.767,-322.893,-2.500,0.760,7.780
795,48906.519000,-37.690,-26.308,-240.185,56.550,-368.764,-323.012,-9.500,-19.240,1.780
796,48906.520000,-40.627,-25.296,-242.162,55.615,-369.721,-324.963,-10.500,-6.240,-1.220
797,48906.533000,-40.627,-26.308,-244.139,49.658,-367.737,-320.922,-6.500,16.760,-0.220
798,48906.556000,-39.648,-25.296,-243.151,58.525,-368.781,-324.031,-2.500,21.760,-1.220
799,48906.578000,-38.669,-25.296,-243.151,54.628,-366.809,-325.934,2.500,13.760,-2.220
800,48906.620000,-39.648,-23.273,-243.151,55.598,-367.786,-324.965,6.500,7.760,-1.220
801,48906.633000,-37.690,-24.285,-242.162,52.584,-366.796,-320.975,10.500,2.760,3.780
802,48906.647000,-38.669,-26.308,-242.162,51.675,-368.719,-323.910,8.500,4.760,-0.220
803,48906.656000,-40.627,-26.308,-242.162,53.606,-367.770,-322.961,8.500,23.760,-2.220
804,48906.678000,-37.690,-25.296,-241.174,55.588,-364.883,-325.953,3.500,6.760,-7.220
805,48906.699000,-35.732,-27.320,-242.162,50.635,-361.938,-323.900,-0.500,-18.240,-7.220
806,48906.721000,-40.627,-28.332,-239.197,55.606,-366.818,-325.951,4.500,3.760,-8.220
807,48906.738000,-41.606,-25.296,-239.197,55.536,-364.886,-322.999,7.500,20.760,-3.220
808,48906.761000,-33.774,-26.308,-240.185,55.580,-365.851,-324.967,7.500,13.760,3.780
809,48906.781000,-39.648,-26.308,-241.174,49.717,-364.830,-325.849,-4.500,-24.240,5.780
810,48906.803000,-42.585,-24.285,-240.185,50.627,-366.778,-320.941,-5.500,-14.240,9.780
811,48906.826000,-42.585,-25.296,-239.197,51.588,-364.852,-320.960,4.500,35.760,13.780
812,48906.848000,-36.711,-27.320,-241.174,49.700,-364.831,-324.864,-0.500,54.760,8.780
813,48906.871000,-33.774,-28.332,-242.162,55.641,-366.816,-327.921,-10.500,11.760,-8.220
814,48906.917000,-37.690,-27.320,-241.174,52.671,-368.727,-324.912,-21.500,-40.240,-21.220
815,48906.917000,-41.606,-26.308,-241.174,52.610,-365.827,-322.946,-20.500,-49.240,-20.220
816,48906.935000,-42.585,-25.296,-243.151,51.587,-362.916,-321.947,-18.500,-17.240,-16.220
817,48906.950000,-39.648,-25.296,-242.162,57.581,-368.770,-325.984,-10.500,19.760,-12.220
818,48906.977000,-35.732,-26.308,-245.127,56.532,-364.894,-324.001,-5.500,27.760,-12.220
819,48906.992000,-35.732,-27.320,-241.174,51.701,-367.750,-325.881,-9.500,7.760,-16.220
820,48907.16000,-36.711,-25.296,-243.151,48.714,-369.662,-321.888,-17.500,-20.240,-18.220
821,48907.37000,-39.648,-24.285,-242.162,54.672,-369.710,-326.916,-19.500,-24.240,-23.220
822,48907.55000,-40.627,-24.285,-243.151,51.649,-365.817,-323.913,-10.500,-9.240,-27.220
823,48907.82000,-40.627,-25.296,-241.174,53.632,-368.737,-323.945,-6.500,18.760,-25.220
824,48907.97000,-39.648,-24.285,-241.174,48.730,-363.853,-325.833,-5.500,34.760,-21.220
825,48907.115000,-35.732,-25.296,-243.151,55.597,-363.915,-326.939,-4.500,52.760,-18.220
826,48907.137000,-32.795,-24.285,-244.139,56.575,-363.923,-326.956,0.500,34.760,-19.220
827,48907.161000,-34.753,-25.296,-245.127,54.593,-366.811,-323.964,-1.500,-0.240,-17.220
828,48907.181000,-35.732,-26.308,-245.127,49.709,-367.734,-323.877,-1.500,-16.240,-7.220
829,48907.197000,-37.690,-25.296,-244.139,55.615,-367.785,-325.950,0.500,-13.240,-3.220
830,48907.219000,-37.690,-24.285,-243.151,58.532,-363.941,-326.991,3.500,-4.240,5.780
831,48907.235000,-33.774,-25.296,-243.151,50.714,-366.773,-325.865,8.500,-2.240,-3.220
832,48907.265000,-35.732,-25.296,-244.139,54.662,-366.807,-327.903,5.500,-19.240,-8.220
833,48907.280000,-39.648,-27.320,-244.139,57.519,-363.934,-325.004,6.500,-15.240,-8.220
834,48907.303000,-37.690,-26.308,-242.162,51.718,-365.813,-327.852,18.500,20.760,-2.220
835,48907.320000,-36.711,-26.308,-242.162,51.631,-363.882,-323.915,24.500,35.760,-0.220
836,48907.342000,-35.732,-26.308,-243.151,58.558,-364.908,-327.974,23.500,33.760,8.780
837,48907.367000,-35.732,-25.296,-238.208,57.571,-363.931,-327.958,21.500,32.760,11.780
838,48907.384000,-39.648,-26.308,-238.208,51.674,-364.847,-325.884,15.500,47.760,23.780
839,48907.402000,-35.732,-26.308,-238.208,53.683,-364.862,-328.873,14.500,80.760,22.780
840,48907.425000,-29.859,-28.332,-240.185,50.696,-364.838,-325.866,5.500,42.760,3.780
841,48907.445000,-32.795,-29.344,-239.197,55.605,-361.010,-328.911,-14.500,-36.240,-17.220
842,48907.467000,-37.690,-27.320,-242.162,54.583,-360.036,-326.925,-17.500,-48.240,-17.220
843,48907.487000,-36.711,-26.308,-242.162,55.614,-363.914,-327.923,-11.500,-26.240,-7.220
844,48907.511000,-36.711,-27.320,-241.174,58.524,-364.910,-326.005,-6.500,-12.240,1.780
845,48907.533000,-37.690,-26.308,-243.151,50.722,-365.805,-326.850,-5.500,-7.240,-3.220
846,48907.565000,-35.732,-26.308,-241.174,52.618,-362.922,-324.918,0.500,12.760,-2.220
847,48907.572000,-35.732,-27.320,-242.162,51.630,-361.946,-324.902,-5.500,9.760,1.780
848,48907.592000,-33.774,-26.308,-244.139,58.567,-365.875,-327.973,-6.500,-6.240,-2.220
849,48907.615000,-33.774,-25.296,-244.139,58.594,-368.777,-327.971,-4.500,-24.240,-3.220
850,48907.633000,-37.690,-26.308,-244.139,50.704,-363.870,-326.852,-2.500,-28.240,-3.220
851,48907.648000,-38.669,-26.308,-243.151,57.546,-366.836,-325.001,0.500,-19.240,0.780
852,48907.680000,-37.690,-25.296,-241.174,52.626,-360.018,-326.891,4.500,4.760,2.780
853,48907.692000,-35.732,-27.320,-240.185,51.665,-363.880,-325.885,5.500,-3.240,5.780
854,48907.709000,-35.732,-26.308,-242.162,55.579,-363.915,-325.954,-0.500,-24.240,-2.220
855,48907.749000,-36.711,-25.296,-241.174,55.614,-363.914,-327.923,0.500,-15.240,-2.220
856,48907.755000,-37.690,-25.296,-239.197,59.537,-364.917,-327.992,1.500,-9.240,4.780
857,48907.778000,-37.690,-25.296,-239.197,52.635,-362.921,-325.903,-5.500,-8.240,-0.220
858,48907.797000,-39.648,-28.332,-239.197,59.529,-367.821,-326.019,-10.500,-0.240,-0.220
859,48907.821000,-36.711,-26.308,-240.185,56.497,-362.960,-323.018,-18.500,-16.240,-12.220
860,48907.838000,-39.648,-25.296,-240.185,56.602,-366.826,-326.953,-23.500,-28.240,-13.220
861,48907.886000,-44.543,-26.308,-241.174,52.609,-363.891,-323.933,-16.500,6.760,-11.220
862,48907.894000,-40.627,-26.308,-242.162,61.503,-367.838,-327.039,-7.500,61.760,-9.220
863,48907.912000,-35.732,-27.320,-241.174,55.579,-363.915,-325.954,-9.500,49.760,-10.220
864,48907.921000,-37.690,-25.296,-242.162,55.605,-361.010,-328.911,-18.500,30.760,-13.220
865,48907.940000,-34.753,-24.285,-243.151,52.669,-360.984,-328.859,-14.500,24.760,-8.220
866,48907.962000,-34.753,-24.285,-243.151,54.583,-361.972,-325.939,-17.500,2.760,-14.220
867,48907.975000,-34.753,-25.296,-244.139,55.648,-361.976,-330.880,-10.500,1.760,-16.220
868,48908.2000,-38.669,-23.273,-246.116,54.618,-361.970,-327.908,0.500,31.760,-11.220
869,48908.26000,-35.732,-25.296,-244.139,50.764,-360.963,-331.779,4.500,36.760,-10.220
870,48908.41000,-32.795,-25.296,-245.127,60.505,-360.086,-329.983,3.500,8.760,-22.220
871,48908.63000,-33.774,-25.296,-245.127,53.718,-364.860,-330.842,3.500,-8.240,-23.220
872,48908.81000,-34.753,-25.296,-241.174,54.643,-361.000,-329.879,8.500,5.760,-17.220
873,48908.100000,-34.753,-26.308,-240.185,53.683,-362.926,-329.859,7.500,7.760,-4.220
874,48908.121000,-33.774,-27.320,-242.162,57.544,-361.029,-327.961,5.500,3.760,-2.220
875,48908.143000,-33.774,-25.296,-242.162,55.649,-363.912,-329.893,3.500,2.760,-1.220
876,48908.166000,-35.732,-26.308,-239.197,55.544,-361.982,-324.971,-0.500,9.760,-0.220
877,48908.191000,-31.816,-29.344,-240.185,58.557,-359.100,-330.935,-11.500,8.760,-6.220
878,48908.209000,-31.816,-29.344,-241.174,55.640,-364.880,-328.907,-16.500,-2.240,-9.220
879,48908.228000,-30.837,-26.308,-244.139,59.510,-360.079,-328.981,-26.500,-20.240,-8.220
880,48908.251000,-33.774,-23.273,-243.151,52.652,-360.985,-327.875,-23.500,-30.240,-7.220
881,48908.270000,-34.753,-26.308,-242.162,52.714,-365.821,-328.854,-20.500,-21.240,1.780
882,48908.302000,-33.774,-26.308,-241.174,52.669,-360.984,-328.859,-15.500,-4.240,6.780
883,48908.311000,-33.774,-25.296,-245.127,54.652,-361.968,-329.878,-12.500,1.760,11.780
884,48908.336000,-32.795,-26.308,-244.139,54.670,-361.967,-330.862,-3.500,0.760,13.780
885,48908.357000,-33.774,-25.296,-242.162,56.548,-361.021,-326.959,-4.500,-11.240,12.780
886,48908.372000,-37.690,-25.296,-242.162,57.605,-361.994,-330.914,-9.500,-26.240,8.780
887,48908.394000,-40.627,-24.285,-241.174,49.708,-361.926,-326.837,-7.500,-16.240,10.780
888,48908.410000,-36.711,-26.308,-244.139,51.708,-360.974,-329.827,-2.500,10.760,10.780
889,48908.437000,-34.753,-26.308,-239.197,55.570,-361.012,-326.942,0.500,17.760,10.780
890,48908.452000,-34.753,-25.296,-239.197,54.652,-361.968,-329.878,-2.500,-4.240,9.780
891,48908.475000,-37.690,-26.308,-236.232,49.708,-363.862,-325.850,-9.500,-22.240,11.780
892,48908.497000,-35.732,-23.273,-237.220,50.730,-362.901,-328.823,-21.500,-11.240,7.780
893,48908.522000,-32.795,-24.285,-240.185,49.787,-366.761,-328.802,-36.500,-29.240,0.780
894,48908.539000,-35.732,-25.296,-243.151,51.682,-361.943,-327.856,-50.500,-60.240,-7.220
895,48908.555000,-38.669,-21.249,-245.127,52.713,-363.885,-329.841,-44.500,-54.240,-17.220
896,48908.577000,-39.648,-22.261,-246.116,57.580,-364.899,-327.957,-37.500,-10.240,-12.220
897,48908.598000,-36.711,-24.285,-248.093,55.675,-366.814,-329.890,-23.500,34.760,1.780
898,48908.641000,-31.816,-23.273,-249.081,50.705,-365.806,-325.866,-11.500,28.760,0.780
899,48908.660000,-33.774,-24.285,-247.104,52.739,-364.851,-330.825,-7.500,-15.240,-2.220
900,48908.662000,-37.690,-24.285,-246.116,58.541,-364.909,-326.990,-1.500,-22.240,-0.220
901,48908.684000,-37.690,-24.285,-243.151,53.692,-365.830,-328.872,6.500,-5.240,11.780
902,48908.706000,-38.669,-24.285,-242.162,46.833,-362.864,-329.738,12.500,7.760,19.780
903,48908.723000,-39.648,-22.261,-239.197,47.847,-366.743,-329.752,14.500,23.760,29.780
904,48908.746000,-38.669,-23.273,-236.232,49.717,-362.894,-326.836,11.500,31.760,32.780
905,48908.766000,-35.732,-25.296,-236.232,46.876,-361.894,-332.694,2.500,36.760,27.780
906,48908.786000,-33.774,-25.296,-238.208,50.800,-364.833,-331.775,-17.500,15.760,15.780
907,48908.810000,-33.774,-24.285,-239.197,52.687,-364.854,-327.871,-35.500,-10.240,-7.220
908,48908.837000,-35.732,-21.249,-243.151,53.701,-364.861,-329.857,-46.500,-29.240,-15.220
909,48908.851000,-36.711,-21.249,-244.139,53.640,-363.897,-326.904,-47.500,-38.240,-21.220
910,48908.873000,-39.648,-22.261,-245.127,52.722,-364.852,-329.840,-43.500,-30.240,-29.220
911,48908.887000,-37.690,-20.237,-247.104,53.657,-363.896,-327.889,-28.500,-2.240,-29.220
912,48908.907000,-35.732,-21.249,-246.116,52.713,-363.885,-329.841,-21.500,8.760,-26.220
913,48908.925000,-35.732,-21.249,-246.116,49.717,-362.894,-326.836,-21.500,6.760,-23.220
914,48908.942000,-35.732,-20.237,-247.104,45.837,-362.856,-328.736,-14.500,-2.240,-21.220
915,48908.965000,-34.753,-20.237,-247.104,49.734,-360.957,-328.807,-6.500,-11.240,-15.220
916,48909.4000,-35.732,-21.249,-247.104,46.825,-365.768,-327.766,3.500,-23.240,-5.220
917,48909.7000,-37.690,-22.261,-245.127,49.752,-364.828,-327.819,14.500,-14.240,3.780
918,48909.28000,-35.732,-22.261,-243.151,46.825,-363.832,-328.753,20.500,-1.240,7.780
919,48909.63000,-33.774,-22.261,-243.151,51.681,-358.072,-329.830,15.500,-3.240,-1.220
920,48909.95000,-34.753,-23.273,-242.162,53.657,-361.960,-328.876,7.500,-2.240,-2.220
921,48909.113000,-33.774,-20.237,-241.174,48.755,-360.948,-328.790,5.500,-6.240,-2.220
922,48909.116000,-33.774,-22.261,-239.197,54.636,-365.840,-326.919,2.500,-9.240,1.780
923,48909.129000,-36.711,-24.285,-240.185,58.531,-360.070,-328.964,-0.500,-6.240,8.780
924,48909.142000,-35.732,-22.261,-241.174,47.778,-364.811,-326.799,0.500,9.760,14.780
925,48909.174000,-33.774,-22.261,-241.174,47.830,-364.808,-329.754,-0.500,-9.240,9.780
926,48909.191000,-37.690,-24.285,-239.197,47.795,-364.810,-327.784,-8.500,-22.240,0.780
927,48909.212000,-38.669,-24.285,-241.174,51.640,-364.849,-323.914,-10.500,-8.240,-1.220
928,48909.230000,-38.669,-23.273,-241.174,45.786,-362.859,-325.782,-9.500,2.760,-2.220
929,48909.255000,-37.690,-22.261,-240.185,45.803,-362.858,-326.767,-9.500,-4.240,-4.220
930,48909.275000,-36.711,-24.285,-241.174,51.734,-361.940,-330.811,-11.500,-11.240,-6.220
931,48909.297000,-36.711,-23.273,-243.151,51.726,-362.909,-329.825,-11.500,-8.240,-6.220
932,48909.316000,-35.732,-20.237,-242.162,54.618,-363.906,-326.921,-10.500,-3.240,-6.220
933,48909.338000,-34.753,-20.237,-243.151,54.662,-366.807,-327.903,-16.500,-19.240,-2.220
934,48909.355000,-36.711,-22.261,-242.162,45.890,-366.725,-329.717,-14.500,-25.240,-6.220
935,48909.376000,-38.669,-22.261,-243.151,47.778,-364.811,-326.799,-8.500,-2.240,-2.220
936,48909.397000,-36.711,-21.249,-243.151,46.833,-362.864,-329.738,-1.500,6.760,0.780
937,48909.421000,-32.795,-21.249,-242.162,49.735,-366.764,-325.847,-8.500,-23.240,-0.220
938,48909.440000,-35.732,-20.237,-243.151,50.774,-365.802,-329.805,-9.500,-37.240,-3.220
939,48909.461000,-37.690,-20.237,-242.162,54.653,-365.839,-327.904,-6.500,-10.240,-4.220
940,48909.474000,-40.627,-20.237,-242.162,44.921,-367.683,-329.699,-3.500,11.760,0.780
941,48909.503000,-33.774,-20.237,-242.162,44.841,-360.912,-328.721,5.500,38.760,3.780
942,48909.524000,-31.816,-20.237,-243.151,48.791,-364.818,-328.786,1.500,5.760,9.780
943,48909.544000,-34.753,-23.273,-241.174,50.704,-361.934,-327.839,-5.500,-21.240,12.780
944,48909.585000,-36.711,-23.273,-241.174,54.688,-365.837,-329.874,-3.500,-18.240,21.780
945,48909.607000,-40.627,-24.285,-239.197,42.955,-366.698,-329.665,0.500,-10.240,17.780
946,48909.620000,-40.627,-24.285,-238.208,45.855,-364.791,-328.734,-6.500,-23.240,10.780
947,48909.626000,-37.690,-23.273,-240.185,47.778,-364.811,-326.799,-13.500,-29.240,1.780
948,48909.654000,-37.690,-22.261,-239.197,46.756,-363.836,-324.813,-24.500,-35.240,-4.220
949,48909.675000,-35.732,-22.261,-242.162,48.765,-365.787,-326.816,-27.500,-36.240,-4.220
950,48909.696000,-36.711,-21.249,-244.139,49.648,-364.833,-321.910,-34.500,-42.240,-4.220
951,48909.716000,-39.648,-20.237,-246.116,53.649,-366.800,-325.916,-33.500,-39.240,-4.220
952,48909.732000,-39.648,-19.225,-246.116,44.817,-367.689,-323.790,-23.500,-14.240,-8.220
953,48909.755000,-35.732,-20.237,-249.081,46.825,-363.832,-328.753,-14.500,-6.240,-4.220
954,48909.775000,-36.711,-18.213,-247.104,47.735,-365.781,-323.844,-8.500,-29.240,-9.220
955,48909.800000,-40.627,-18.213,-246.116,47.760,-364.812,-325.815,-7.500,-55.240,-5.220
956,48909.820000,-42.585,-17.202,-245.127,46.809,-367.705,-325.794,10.500,-27.240,6.780
957,48909.839000,-37.690,-20.237,-244.139,52.645,-367.760,-323.929,20.500,-4.240,16.780
958,48909.859000,-37.690,-19.225,-242.162,46.765,-364.804,-324.812,18.500,-7.240,11.780
959,48909.878000,-43.564,-20.237,-240.185,49.728,-371.604,-322.888,9.500,-26.240,3.780
960,48909.902000,-44.543,-19.225,-238.208,46.818,-370.608,-324.807,3.500,1.760,-1.220
961,48909.917000,-39.648,-20.237,-240.185,50.706,-369.677,-323.892,8.500,38.760,-3.220
962,48909.943000,-34.753,-21.249,-240.185,46.773,-365.771,-324.812,-0.500,12.760,-5.220
963,48909.983000,-37.690,-20.237,-242.162,52.662,-367.759,-324.913,-9.500,-34.240,-2.220
964,48909.996000,-43.564,-19.225,-240.185,50.706,-371.613,-322.905,-11.500,-37.240,-5.220
965,48909.996000,-42.585,-19.225,-242.162,46.809,-369.641,-324.808,-3.500,-2.240,-0.220
966,48910.20000,-39.648,-20.237,-245.127,44.781,-363.820,-323.794,2.500,4.760,2.780
967,48910.42000,-39.648,-20.237,-242.162,46.687,-365.776,-319.888,1.500,5.760,-1.220
968,48910.62000,-43.564,-19.225,-241.174,45.821,-366.729,-325.778,-0.500,-1.240,-1.220
969,48910.80000,-40.627,-21.249,-240.185,46.783,-370.610,-322.837,1.500,5.760,1.780
970,48910.102000,-40.627,-22.261,-240.185,53.685,-370.670,-325.913,-1.500,-0.240,-6.220
971,48910.129000,-41.606,-20.237,-240.185,51.718,-367.749,-326.866,-6.500,-3.240,-10.220
972,48910.146000,-43.564,-19.225,-240.185,52.627,-365.826,-323.931,-8.500,5.760,-16.220
973,48910.175000,-41.606,-21.249,-240.185,50.740,-367.740,-326.848,-11.500,28.760,-22.220
974,48910.190000,-38.669,-22.261,-242.162,51.692,-366.782,-325.882,-14.500,20.760,-23.220
975,48910.207000,-35.732,-21.249,-242.162,41.916,-367.661,-325.708,-16.500,7.760,-22.220
976,48910.226000,-38.669,-18.213,-243.151,44.834,-367.688,-324.775,-19.500,-6.240,-19.220
977,48910.248000,-37.690,-19.225,-244.139,45.839,-368.664,-325.776,-10.500,15.760,-5.220
978,48910.272000,-34.753,-20.237,-243.151,50.695,-362.903,-326.853,-7.500,15.760,-0.220
979,48910.291000,-35.732,-19.225,-245.127,47.857,-369.646,-328.764,-8.500,-1.240,-1.220
980,48910.309000,-37.690,-19.225,-246.116,50.705,-365.806,-325.866,-4.500,5.760,6.780
981,48910.336000,-38.669,-20.237,-246.116,43.864,-366.711,-325.743,1.500,14.760,4.780
982,48910.356000,-40.627,-21.249,-244.139,40.868,-365.720,-322.738,5.500,18.760,1.780
983,48910.375000,-39.648,-21.249,-245.127,49.779,-367.730,-327.816,14.500,28.760,4.780
984,48910.392000,-36.711,-21.249,-242.162,52.670,-364.855,-326.886,16.500,25.760,3.780
985,48910.409000,-37.690,-22.261,-242.162,44.860,-368.655,-325.759,11.500,-1.240,3.780
986,48910.431000,-39.648,-21.249,-241.174,51.649,-367.752,-322.927,7.500,-11.240,4.780
987,48910.452000,-39.648,-23.273,-239.197,48.722,-364.822,-324.847,6.500,-0.240,0.780
988,48910.482000,-37.690,-21.249,-241.174,49.770,-366.762,-327.817,2.500,4.760,-1.220
989,48910.493000,-37.690,-20.237,-240.185,47.621,-362.884,-318.923,-8.500,-12.240,-4.220
990,48910.516000,-38.669,-20.237,-240.185,48.774,-366.754,-326.815,-14.500,-18.240,-7.220
991,48910.538000,-37.690,-21.249,-241.174,51.631,-365.818,-322.929,-15.500,-4.240,-9.220
992,48910.558000,-39.648,-21.249,-243.151,47.838,-365.775,-329.753,-13.500,4.760,-10.220
993,48910.576000,-38.669,-19.225,-243.151,44.842,-364.784,-326.747,-11.500,9.760,-11.220
994,48910.593000,-35.732,-18.213,-242.162,49.675,-367.736,-321.907,-6.500,4.760,-1.220
995,48910.611000,-36.711,-22.261,-242.162,49.709,-367.734,-323.877,-9.500,-24.240,7.780
996,48910.641000,-39.648,-20.237,-243.151,45.769,-364.796,-323.810,-5.500,-21.240,11.780
997,48910.655000,-42.585,-19.225,-242.162,44.816,-363.818,-325.764,1.500,9.760,12.780
998,48910.697000,-39.648,-20.237,-243.151,52.653,-364.856,-325.901,5.500,18.760,14.780
999,48910.716000,-34.753,-20.237,-243.151,53.683,-364.862,-328.873,-1.500,-20.240,4.780
1000,48910.722000,-38.669,-21.249,-242.162,50.714,-366.773,-325.865,-7.500,-37.240,-2.220
