Sample, Time, ACCX, ACCY, ACCZ, MAGX, MAGY, MAGZ, GYRX, GYRY, GYRZ
0,48961.28000,-52.375,-8.095,-240.185,42.647,-382.202,-304.046,-28.500,-27.240,6.780
1,48961.55000,-53.354,-5.059,-241.174,36.846,-382.145,-307.881,-31.500,-29.240,-4.220
2,48961.79000,-54.333,-4.047,-242.162,36.846,-384.080,-306.894,-28.500,-20.240,-7.220
3,48961.94000,-54.333,-5.059,-242.162,37.738,-382.158,-302.975,-20.500,6.760,-0.220
4,48961.117000,-52.375,-6.071,-246.116,40.777,-382.179,-308.935,-5.500,38.760,13.780
5,48961.137000,-51.396,-9.107,-245.127,43.643,-382.210,-305.048,-0.500,39.760,16.780
6,48961.170000,-52.375,-10.119,-242.162,41.739,-384.125,-306.981,3.500,25.760,16.780
7,48961.188000,-53.354,-11.130,-242.162,35.841,-381.169,-306.880,5.500,0.760,15.780
8,48961.200000,-52.375,-10.119,-242.162,41.722,-386.062,-305.009,3.500,-11.240,12.780
9,48961.233000,-53.354,-9.107,-240.185,36.732,-379.247,-302.960,2.500,-19.240,15.780
10,48961.250000,-52.375,-11.130,-241.174,38.750,-380.230,-305.948,0.500,-24.240,10.780
11,48961.270000,-53.354,-9.107,-240.185,39.739,-385.077,-303.991,-2.500,-17.240,-2.220
12,48961.284000,-52.375,-6.071,-242.162,42.691,-385.103,-305.028,-5.500,-19.240,-11.220
13,48961.304000,-52.375,-4.047,-242.162,40.621,-380.252,-301.059,-5.500,-23.240,-12.220
14,48961.327000,-53.354,-3.036,-241.174,33.867,-383.088,-304.874,-3.500,-20.240,-9.220
15,48961.343000,-54.333,-5.059,-239.197,42.647,-380.266,-305.033,5.500,-6.240,1.780
16,48961.369000,-55.312,-6.071,-238.208,40.690,-382.184,-304.011,5.500,22.760,7.780
17,48961.389000,-53.354,-7.083,-240.185,39.746,-380.238,-306.950,10.500,38.760,7.780
18,48961.409000,-51.396,-8.095,-241.174,38.777,-385.068,-304.958,6.500,10.760,-1.220
19,48961.427000,-52.375,-7.083,-242.162,43.661,-384.145,-305.046,4.500,-24.240,-3.220
20,48961.450000,-54.333,-10.119,-239.197,39.755,-381.205,-306.949,-2.500,-39.240,0.780
21,48961.473000,-58.249,-10.119,-238.208,38.726,-385.071,-302.004,4.500,-18.240,0.780
22,48961.495000,-53.354,-10.119,-240.185,42.682,-384.136,-305.029,1.500,-2.240,-7.220
23,48961.510000,-53.354,-9.107,-241.174,43.669,-383.176,-306.032,-3.500,-16.240,-12.220
24,48961.535000,-53.354,-9.107,-240.185,37.746,-381.190,-303.960,-8.500,-33.240,-23.220
25,48961.558000,-55.312,-5.059,-240.185,35.824,-383.106,-304.908,-8.500,-11.240,-25.220
26,48961.577000,-56.291,-5.059,-241.174,36.829,-384.081,-305.910,-3.500,5.760,-27.220
27,48961.605000,-53.354,-5.059,-240.185,38.751,-382.165,-304.961,-2.500,17.760,-18.220
28,48961.619000,-52.375,-8.095,-243.151,41.694,-379.288,-306.986,3.500,6.760,-7.220
29,48961.633000,-53.354,-7.083,-244.139,43.678,-384.144,-306.031,15.500,12.760,2.780
30,48961.642000,-53.354,-9.107,-240.185,43.704,-385.110,-307.014,21.500,26.760,11.780
31,48961.674000,-52.375,-8.095,-241.174,37.790,-382.156,-305.929,24.500,26.760,10.780
32,48961.680000,-51.396,-10.119,-238.208,37.738,-382.158,-302.975,17.500,1.760,1.780
33,48961.713000,-53.354,-11.130,-238.208,40.672,-378.314,-305.000,10.500,-12.240,-3.220
34,48961.730000,-53.354,-10.119,-237.220,40.751,-383.149,-306.964,4.500,1.760,-1.220
35,48961.756000,-51.396,-11.130,-239.197,45.635,-382.226,-307.052,1.500,6.760,-3.220
36,48961.777000,-51.396,-10.119,-239.197,37.782,-385.060,-303.956,-4.500,-10.240,-8.220
37,48961.799000,-53.354,-10.119,-238.208,45.635,-384.162,-306.065,-2.500,-3.240,-8.220
38,48961.819000,-53.354,-10.119,-237.220,40.725,-382.182,-305.981,2.500,25.760,-2.220
39,48961.857000,-52.375,-10.119,-240.185,40.664,-379.282,-304.014,-1.500,27.760,0.780
40,48961.875000,-50.417,-9.107,-241.174,44.674,-382.216,-308.019,-3.500,15.760,-2.220
41,48961.892000,-50.417,-9.107,-240.185,44.614,-385.123,-303.093,-6.500,-11.240,-7.220
42,48961.905000,-53.354,-9.107,-240.185,41.634,-380.259,-303.046,-7.500,-15.240,-6.220
43,48961.933000,-54.333,-9.107,-239.197,41.703,-380.255,-306.985,-5.500,8.760,-4.220
44,48961.943000,-52.375,-9.107,-239.197,45.583,-384.164,-303.111,-5.500,17.760,-1.220
45,48961.965000,-52.375,-8.095,-240.185,42.629,-378.331,-305.034,-7.500,6.760,2.780
46,48961.984000,-50.417,-9.107,-240.185,39.721,-383.143,-303.993,-4.500,1.760,0.780
47,48961.999000,-53.354,-9.107,-238.208,38.768,-382.164,-305.946,-6.500,6.760,-2.220
48,48962.27000,-52.375,-10.119,-241.174,47.584,-385.148,-305.114,-6.500,6.760,1.780
49,48962.44000,-51.396,-10.119,-239.197,46.683,-384.167,-310.022,-8.500,6.760,0.780
50,48962.63000,-51.396,-11.130,-238.208,40.708,-382.183,-304.996,-19.500,-7.240,-7.220
51,48962.84000,-49.438,-8.095,-241.174,44.692,-386.086,-307.031,-25.500,-26.240,-14.220
52,48962.102000,-52.375,-8.095,-241.174,44.647,-381.249,-307.036,-23.500,-31.240,-16.220
53,48962.129000,-55.312,-6.071,-243.151,41.695,-383.159,-305.012,-13.500,0.760,-15.220
54,48962.147000,-53.354,-8.095,-241.174,37.781,-381.188,-305.930,-1.500,17.760,-3.220
55,48962.164000,-51.396,-9.107,-242.162,38.881,-385.062,-310.867,1.500,17.760,-1.220
56,48962.207000,-50.417,-6.071,-242.162,33.945,-384.052,-308.812,-1.500,-6.240,0.780
57,48962.225000,-53.354,-8.095,-243.151,40.743,-384.117,-305.979,2.500,10.760,5.780
58,48962.243000,-48.459,-6.071,-244.139,44.717,-381.246,-310.975,7.500,23.760,9.780
59,48962.260000,-50.417,-7.083,-243.151,44.656,-382.217,-307.035,10.500,12.760,7.780
60,48962.274000,-52.375,-9.107,-241.174,41.704,-382.191,-305.998,6.500,-18.240,11.780
61,48962.298000,-55.312,-7.083,-241.174,35.806,-379.236,-305.897,10.500,-9.240,16.780
62,48962.320000,-53.354,-6.071,-241.174,38.812,-383.130,-307.915,19.500,9.760,21.780
63,48962.338000,-51.396,-8.095,-240.185,37.789,-380.220,-306.915,26.500,14.760,28.780
64,48962.360000,-52.375,-8.095,-238.208,44.656,-380.281,-308.021,24.500,-2.240,35.780
65,48962.383000,-53.354,-8.095,-235.243,43.651,-379.306,-307.020,20.500,-8.240,36.780
66,48962.403000,-54.333,-7.083,-238.208,36.863,-384.079,-307.879,13.500,8.760,25.780
67,48962.415000,-53.354,-9.107,-237.220,37.790,-382.156,-305.929,8.500,12.760,20.780
68,48962.438000,-54.333,-10.119,-238.208,39.738,-381.206,-305.964,-4.500,1.760,-2.220
69,48962.460000,-55.312,-9.107,-238.208,38.785,-380.228,-307.918,-16.500,0.760,-19.220
70,48962.484000,-54.333,-7.083,-239.197,41.721,-382.190,-306.983,-11.500,13.760,-27.220
71,48962.512000,-52.375,-8.095,-238.208,44.674,-384.152,-307.033,-9.500,12.760,-18.220
72,48962.529000,-51.396,-8.095,-239.197,46.605,-383.203,-306.084,-8.500,-1.240,-11.220
73,48962.554000,-53.354,-7.083,-240.185,39.746,-378.302,-307.937,-9.500,-0.240,1.780
74,48962.569000,-52.375,-9.107,-241.174,39.729,-382.174,-304.979,-5.500,12.760,7.780
75,48962.597000,-53.354,-9.107,-242.162,43.668,-379.305,-308.005,-5.500,21.760,-2.220
76,48962.626000,-52.375,-10.119,-242.162,43.678,-382.208,-307.017,-4.500,19.760,-7.220
77,48962.626000,-50.417,-9.107,-241.174,40.804,-385.082,-308.932,-4.500,10.760,-13.220
78,48962.648000,-52.375,-6.071,-244.139,38.733,-382.166,-303.977,-5.500,2.760,-18.220
79,48962.668000,-52.375,-8.095,-241.174,39.825,-385.073,-308.915,-2.500,-1.240,-13.220
80,48962.689000,-52.375,-7.083,-241.174,36.836,-379.241,-308.869,2.500,2.760,-12.220
81,48962.715000,-52.375,-7.083,-240.185,38.777,-383.132,-305.945,10.500,11.760,-3.220
82,48962.729000,-52.375,-8.095,-241.174,43.669,-383.176,-306.032,10.500,19.760,-4.220
83,48962.747000,-50.417,-9.107,-240.185,44.656,-382.217,-307.035,8.500,3.760,-7.220
84,48962.763000,-53.354,-9.107,-240.185,41.755,-382.188,-308.952,1.500,-7.240,-14.220
85,48962.793000,-53.354,-11.130,-240.185,38.759,-381.197,-305.947,1.500,1.760,-15.220
86,48962.824000,-51.396,-10.119,-238.208,36.828,-380.210,-307.883,2.500,15.760,-15.220
87,48962.838000,-50.417,-10.119,-238.208,42.656,-381.234,-305.032,0.500,12.760,-15.220
88,48962.844000,-51.396,-10.119,-238.208,35.857,-377.297,-309.838,-0.500,7.760,-10.220
89,48962.867000,-50.417,-9.107,-242.162,38.803,-382.162,-307.916,0.500,18.760,0.780
90,48962.892000,-49.438,-11.130,-237.220,41.790,-382.186,-310.922,-0.500,11.760,-6.220
91,48962.914000,-49.438,-8.095,-240.185,39.754,-379.269,-307.936,-6.500,-13.240,-13.220
92,48962.947000,-51.396,-9.107,-242.162,40.793,-378.307,-311.893,-7.500,-10.240,-13.220
93,48962.952000,-52.375,-11.130,-241.174,44.656,-380.281,-308.021,-6.500,10.760,-10.220
94,48962.967000,-52.375,-9.107,-241.174,42.681,-378.328,-307.989,-6.500,20.760,-9.220
95,48962.993000,-51.396,-8.095,-242.162,47.625,-378.370,-311.030,-0.500,27.760,-7.220
96,48963.15000,-49.438,-9.107,-240.185,37.876,-380.215,-311.839,2.500,18.760,-6.220
97,48963.48000,-49.438,-10.119,-238.208,36.828,-380.210,-307.883,-4.500,5.760,-7.220
98,48963.87000,-48.459,-11.130,-241.174,49.557,-379.357,-309.094,-8.500,-7.240,-0.220
99,48963.89000,-49.438,-10.119,-240.185,46.682,-382.231,-311.008,-12.500,-5.240,-3.220
100,48963.103000,-50.417,-8.095,-240.185,38.837,-380.225,-310.872,-13.500,-1.240,-4.220
101,48963.119000,-52.375,-10.119,-241.174,44.690,-380.279,-309.991,-10.500,10.760,-0.220
102,48963.143000,-49.438,-9.107,-241.174,46.655,-377.393,-311.998,-7.500,13.760,-1.220
103,48963.160000,-51.396,-10.119,-240.185,46.673,-379.328,-311.996,-7.500,11.760,-4.220
104,48963.183000,-50.417,-9.107,-241.174,40.777,-382.179,-308.935,-6.500,11.760,-3.220
105,48963.203000,-50.417,-8.095,-243.151,48.612,-377.411,-312.033,-4.500,-3.240,-6.220
106,48963.224000,-49.438,-9.107,-244.139,43.738,-379.301,-311.944,-2.500,-5.240,-4.220
107,48963.252000,-50.417,-6.071,-242.162,38.855,-382.160,-310.870,4.500,-2.240,-2.220
108,48963.256000,-51.396,-6.071,-241.174,48.587,-380.316,-309.075,11.500,9.760,3.780
109,48963.273000,-51.396,-9.107,-243.151,44.725,-382.213,-310.974,17.500,25.760,11.780
110,48963.294000,-49.438,-10.119,-243.151,41.746,-377.349,-310.927,17.500,8.760,2.780
111,48963.316000,-47.480,-9.107,-241.174,38.775,-377.324,-308.905,10.500,-29.240,-7.220
112,48963.352000,-52.375,-8.095,-241.174,45.703,-380.286,-311.978,10.500,-29.240,-4.220
113,48963.370000,-53.354,-9.107,-241.174,43.721,-381.238,-309.973,12.500,2.760,-4.220
114,48963.402000,-50.417,-11.130,-240.185,42.698,-376.392,-309.960,12.500,23.760,-7.220
115,48963.420000,-48.459,-10.119,-239.197,37.858,-380.216,-310.855,5.500,0.760,-10.220
116,48963.444000,-49.438,-11.130,-238.208,46.594,-376.428,-309.045,1.500,-15.240,-7.220
117,48963.451000,287.327,125.470,-187.799,33.698,-398.584,-287.133,-312.500,-2574.240,64.780
118,48963.476000,-135.587,-44.522,-208.556,26.704,-407.241,-274.201,-350.500,-1138.240,-86.220
119,48963.497000,-170.830,13.154,-227.336,34.497,-407.314,-272.370,46.500,290.760,160.780
120,48963.520000,-133.629,-29.344,-239.197,30.841,-399.521,-291.019,128.500,814.760,17.780
121,48963.529000,-79.786,-36.427,-250.069,23.954,-389.782,-293.862,105.500,1100.760,-128.220
122,48963.550000,-69.996,-10.119,-270.826,29.018,-382.073,-307.743,64.500,959.760,-194.220
123,48963.573000,-20.069,38.451,-263.907,34.932,-381.157,-310.802,-134.500,614.760,-59.220
124,48963.602000,-35.732,5.059,-266.873,34.956,-376.316,-314.746,-2.500,89.760,-46.220
125,48963.618000,-51.396,-5.059,-263.907,37.884,-379.246,-312.825,2.500,-235.240,-61.220
126,48963.640000,-66.080,2.024,-257.977,29.044,-383.040,-308.726,18.500,-264.240,-96.220
127,48963.660000,-63.143,3.036,-253.035,33.936,-383.084,-308.813,79.500,-58.240,-38.220
128,48963.675000,-53.354,-1.012,-248.093,35.902,-384.070,-308.847,108.500,83.760,-0.220
129,48963.693000,-50.417,-1.012,-243.151,34.897,-379.223,-309.819,109.500,100.760,-1.220
130,48963.714000,-49.438,-4.047,-236.232,38.837,-382.161,-309.885,113.500,100.760,-3.220
131,48963.733000,-46.501,-8.095,-231.290,41.763,-379.284,-310.925,109.500,94.760,-12.220
132,48963.753000,-43.564,-9.107,-230.301,42.716,-378.326,-309.958,91.500,56.760,-1.220
133,48963.775000,-41.606,-7.083,-232.278,38.836,-378.289,-311.859,67.500,-11.240,-19.220
134,48963.793000,-44.543,-8.095,-232.278,38.827,-375.386,-312.846,43.500,-54.240,-24.220
135,48963.812000,-49.438,-10.119,-232.278,42.751,-380.260,-310.941,22.500,-57.240,-21.220
136,48963.834000,-52.375,-11.130,-232.278,45.642,-377.386,-310.011,10.500,-0.240,-13.220
137,48963.862000,-134.608,-105.233,-171.985,37.858,-378.280,-311.841,-32.500,93.760,3.780
138,48963.883000,-68.038,-22.261,-219.429,34.864,-386.968,-303.902,-696.500,209.760,-74.220
139,48963.910000,-123.839,-46.545,-234.255,34.856,-389.872,-301.930,-157.500,-828.240,-29.220
140,48963.917000,-117.966,-57.676,-240.185,35.835,-389.881,-301.947,-71.500,60.760,47.780
141,48963.934000,-97.407,-20.237,-241.174,34.869,-374.385,-310.809,-155.500,900.760,-42.220
142,48963.962000,-56.291,10.119,-262.919,36.990,-373.425,-320.692,71.500,1147.760,-94.220
143,48963.984000,52.375,13.154,-246.116,41.890,-368.630,-323.737,197.500,463.760,220.780
144,48964.4000,-8.321,1.012,-248.093,36.037,-370.511,-323.632,-162.500,-473.240,-135.220
145,48964.28000,-62.164,0.000,-263.907,34.965,-375.347,-315.731,-128.500,-734.240,-66.220
146,48964.44000,-79.786,3.036,-262.919,32.973,-375.331,-313.727,-30.500,-399.240,-25.220
147,48964.62000,-72.933,0.000,-257.977,40.750,-379.277,-308.938,4.500,-242.240,-28.220
148,48964.84000,-69.017,0.000,-255.012,35.867,-380.200,-308.850,44.500,40.760,-13.220
149,48964.102000,-51.396,0.000,-251.058,33.909,-376.311,-310.789,80.500,253.760,38.780
150,48964.127000,-42.585,-1.012,-244.139,36.948,-378.267,-315.763,87.500,228.760,29.780
151,48964.149000,-43.564,-4.047,-240.185,39.856,-371.520,-317.791,78.500,120.760,11.780
152,48964.172000,-39.648,-3.036,-239.197,35.917,-374.390,-314.765,65.500,-10.240,0.780
153,48964.189000,-44.543,-3.036,-238.208,42.758,-375.420,-313.900,55.500,-110.240,-7.220
154,48964.224000,-51.396,-5.059,-236.232,43.729,-378.333,-311.945,42.500,-119.240,-19.220
155,48964.253000,-56.291,-6.071,-235.243,41.781,-381.219,-310.923,36.500,-36.240,-10.220
156,48964.262000,-54.333,-7.083,-235.243,37.901,-379.245,-313.810,38.500,16.760,-9.220
157,48964.262000,-47.480,-9.107,-237.220,38.906,-380.221,-314.811,35.500,67.760,-13.220
158,48964.280000,-41.606,-6.071,-237.220,42.732,-376.390,-311.930,23.500,34.760,-20.220
159,48964.312000,-44.543,-6.071,-236.232,39.832,-378.297,-312.861,3.500,-53.240,-21.220
160,48964.334000,-50.417,-7.083,-238.208,41.755,-380.252,-309.939,-2.500,-75.240,-15.220
161,48964.352000,-52.375,-7.083,-240.185,43.738,-379.301,-311.944,3.500,-19.240,-14.220
162,48964.369000,-51.396,-8.095,-239.197,42.741,-377.357,-311.929,7.500,32.760,-5.220
163,48964.392000,-47.480,-9.107,-239.197,40.837,-379.272,-313.862,3.500,23.760,-5.220
164,48964.412000,-46.501,-8.095,-239.197,41.790,-380.250,-311.909,-2.500,-1.240,-3.220
165,48964.433000,-46.501,-5.059,-239.197,40.803,-381.210,-310.905,-4.500,-10.240,-0.220
166,48964.452000,-48.459,-6.071,-240.185,43.755,-379.300,-312.929,-8.500,-31.240,6.780
167,48964.477000,-48.459,-3.036,-241.174,39.893,-379.261,-315.814,-10.500,-35.240,9.780
168,48964.498000,-50.417,-4.047,-242.162,37.857,-376.344,-312.828,-8.500,-14.240,11.780
169,48964.519000,-51.396,-3.036,-242.162,43.667,-375.433,-309.978,-4.500,15.760,11.780
170,48964.537000,-51.396,-3.036,-242.162,39.849,-378.296,-313.845,2.500,30.760,12.780
171,48964.559000,-47.480,-6.071,-242.162,39.840,-377.328,-313.846,5.500,26.760,19.780
172,48964.584000,-45.522,-7.083,-242.162,42.767,-376.388,-313.899,1.500,-14.240,23.780
173,48964.597000,-49.438,-7.083,-241.174,41.746,-377.349,-310.927,0.500,-38.240,21.780
174,48964.610000,-52.375,-5.059,-242.162,35.875,-379.232,-309.836,2.500,-32.240,20.780
175,48964.641000,-54.333,-4.047,-243.151,34.904,-376.319,-311.791,11.500,2.760,21.780
176,48964.672000,-52.375,-5.059,-242.162,43.772,-377.363,-314.900,13.500,35.760,11.780
177,48964.690000,-49.438,-3.036,-241.174,43.676,-376.401,-309.977,0.500,7.760,0.780
178,48964.709000,-49.438,-6.071,-242.162,42.690,-379.296,-307.988,-5.500,-30.240,-7.220
179,48964.731000,-52.375,-7.083,-241.174,34.897,-379.223,-309.819,-5.500,-15.240,-11.220
180,48964.753000,-54.333,-4.047,-240.185,39.832,-378.297,-312.861,3.500,14.760,0.780
181,48964.769000,-50.417,-5.059,-242.162,35.857,-377.297,-309.838,7.500,11.760,-2.220
182,48964.791000,-49.438,-5.059,-241.174,37.832,-377.314,-310.857,-0.500,-8.240,-8.220
183,48964.812000,-50.417,-4.047,-240.185,40.811,-378.306,-312.878,-0.500,-10.240,-10.220
184,48964.829000,-50.417,-6.071,-240.185,43.764,-380.267,-312.928,-4.500,-13.240,-15.220
185,48964.852000,-50.417,-4.047,-240.185,48.666,-383.215,-312.027,-5.500,-8.240,-17.220
186,48964.872000,-47.480,-6.071,-239.197,45.702,-376.414,-313.951,-8.500,-11.240,-17.220
187,48964.889000,-48.459,-6.071,-241.174,38.818,-376.354,-311.861,-9.500,-18.240,-13.220
188,48964.906000,-50.417,-6.071,-240.185,43.737,-375.429,-313.918,-3.500,-7.240,-8.220
189,48964.934000,-50.417,-5.059,-241.174,41.771,-376.380,-312.897,0.500,23.760,0.780
190,48964.947000,-46.501,-8.095,-241.174,37.884,-379.246,-312.825,0.500,23.760,4.780
191,48964.974000,-47.480,-4.047,-241.174,39.841,-379.264,-312.860,-7.500,-11.240,0.780
192,48964.989000,-51.396,-4.047,-240.185,40.732,-375.406,-309.927,-8.500,-26.240,-1.220
193,48965.11000,-51.396,-6.071,-242.162,42.742,-379.293,-310.942,-5.500,-23.240,2.780
194,48965.29000,-51.396,-9.107,-241.174,41.798,-379.282,-312.894,1.500,5.760,14.780
195,48965.51000,-52.375,-8.095,-240.185,46.656,-379.328,-311.011,0.500,11.760,10.780
196,48965.69000,-51.396,-7.083,-241.174,42.776,-379.291,-312.912,2.500,17.760,7.780
197,48965.90000,-48.459,-6.071,-239.197,36.861,-376.336,-311.826,2.500,20.760,1.780
198,48965.122000,-48.459,-6.071,-240.185,37.840,-376.345,-311.843,-9.500,-14.240,-5.220
199,48965.141000,-51.396,-4.047,-241.174,41.754,-376.381,-311.912,-19.500,-40.240,-9.220
200,48965.169000,-51.396,-4.047,-243.151,46.673,-377.392,-312.983,-15.500,-21.240,-11.220
201,48965.187000,-49.438,-4.047,-244.139,38.811,-379.258,-309.888,-13.500,-7.240,-8.220
202,48965.205000,-49.438,-3.036,-241.174,36.915,-382.141,-311.820,-8.500,1.760,2.780
203,48965.228000,-50.417,-4.047,-242.162,39.815,-380.234,-310.889,-7.500,-12.240,2.780
204,48965.248000,-50.417,-6.071,-241.174,41.807,-380.249,-312.893,-1.500,1.760,10.780
205,48965.265000,-47.480,-5.059,-241.174,34.913,-375.350,-312.777,-1.500,4.760,5.780
206,48965.282000,-48.459,-4.047,-242.162,40.812,-382.177,-310.905,-11.500,-29.240,-5.220
207,48965.303000,-51.396,-4.047,-242.162,41.816,-381.217,-312.892,-15.500,-34.240,-11.220
208,48965.323000,-52.375,-5.059,-242.162,40.767,-377.340,-310.909,-6.500,-3.240,-7.220
209,48965.340000,-50.417,-4.047,-243.151,45.686,-378.351,-311.980,-0.500,25.760,4.780
210,48965.360000,-51.396,-4.047,-240.185,35.840,-377.298,-308.853,2.500,31.760,13.780
211,48965.397000,-48.459,-2.024,-240.185,41.737,-376.382,-310.928,3.500,25.760,13.780
212,48965.399000,-48.459,-4.047,-239.197,38.801,-376.355,-310.876,4.500,-11.240,11.780
213,48965.420000,-50.417,-5.059,-238.208,43.764,-382.203,-311.941,-9.500,-32.240,1.780
214,48965.454000,-54.333,-3.036,-239.197,39.789,-379.267,-309.905,-14.500,-19.240,2.780
215,48965.458000,-52.375,-4.047,-242.162,41.823,-376.377,-315.851,-17.500,9.760,-3.220
216,48965.485000,-51.396,-4.047,-241.174,34.853,-376.322,-308.837,-16.500,11.760,-12.220
217,48965.504000,-51.396,-3.036,-244.139,34.913,-377.286,-311.790,-14.500,4.760,-13.220
218,48965.523000,-51.396,-3.036,-242.162,45.694,-377.383,-312.965,-7.500,10.760,-7.220
219,48965.550000,-48.459,-3.036,-243.151,40.827,-376.369,-314.849,-5.500,13.760,-5.220
220,48965.582000,-48.459,-4.047,-243.151,34.887,-376.320,-310.807,-5.500,-7.240,-2.220
221,48965.595000,-50.417,-4.047,-244.139,42.716,-380.262,-308.972,-4.500,-25.240,-2.220
222,48965.614000,-51.396,-2.024,-245.127,41.789,-378.315,-312.895,1.500,-7.240,-2.220
223,48965.632000,-49.438,-3.036,-244.139,43.720,-379.302,-310.959,5.500,-0.240,-1.220
224,48965.657000,-51.396,-6.071,-242.162,39.849,-376.360,-314.832,8.500,7.760,4.780
225,48965.674000,-49.438,-5.059,-245.127,38.810,-377.323,-310.875,11.500,14.760,3.780
226,48965.697000,-46.501,-4.047,-243.151,37.894,-384.085,-310.851,10.500,-9.240,3.780
227,48965.719000,-48.459,-5.059,-240.185,38.801,-376.355,-310.876,10.500,-36.240,-0.220
228,48965.737000,-53.354,-5.059,-240.185,36.896,-376.334,-313.795,11.500,-29.240,2.780
229,48965.753000,-51.396,-7.083,-241.174,44.707,-378.342,-311.962,17.500,16.760,11.780
230,48965.777000,-46.501,-8.095,-241.174,37.858,-380.216,-310.855,14.500,9.760,9.780
231,48965.794000,-48.459,-7.083,-238.208,41.806,-378.314,-313.880,0.500,-30.240,-0.220
232,48965.817000,-52.375,-6.071,-239.197,41.797,-377.346,-313.881,-1.500,-23.240,-2.220
233,48965.839000,-52.375,-5.059,-238.208,33.018,-380.168,-313.722,2.500,8.760,2.780
234,48965.858000,-47.480,-3.036,-239.197,40.812,-382.177,-310.905,-2.500,-8.240,5.780
235,48965.880000,-47.480,-3.036,-238.208,34.948,-379.220,-312.773,-12.500,-40.240,2.780
236,48965.907000,-52.375,-5.059,-239.197,36.915,-382.141,-311.820,-15.500,-33.240,7.780
237,48965.919000,-52.375,-6.071,-240.185,37.911,-384.084,-311.835,-13.500,-20.240,9.780
238,48965.933000,-50.417,-4.047,-241.174,35.892,-379.231,-310.821,-14.500,-6.240,5.780
239,48965.960000,-51.396,-3.036,-239.197,36.888,-379.239,-311.823,-17.500,-12.240,-0.220
240,48965.999000,-51.396,-5.059,-242.162,33.883,-377.280,-308.819,-12.500,-14.240,1.780
241,48966.18000,-51.396,-6.071,-243.151,39.850,-380.232,-312.859,-6.500,-2.240,-0.220
242,48966.32000,-51.396,-4.047,-242.162,42.689,-377.360,-308.974,-3.500,-0.240,3.780
243,48966.40000,-51.396,-3.036,-244.139,33.028,-385.007,-311.748,-3.500,-8.240,6.780
244,48966.73000,-52.375,-7.083,-243.151,33.945,-382.116,-309.799,1.500,-1.240,10.780
245,48966.77000,-52.375,-6.071,-241.174,35.919,-382.133,-310.818,5.500,0.760,7.780
246,48966.103000,-49.438,-3.036,-241.174,33.910,-382.118,-307.829,7.500,-6.240,9.780
247,48966.125000,-50.417,-6.071,-239.197,36.854,-381.176,-308.867,3.500,-31.240,13.780
248,48966.148000,-54.333,-8.095,-237.220,37.867,-381.183,-310.854,-2.500,-14.240,11.780
249,48966.173000,-54.333,-4.047,-237.220,36.863,-382.144,-308.866,-2.500,20.760,4.780
250,48966.193000,-53.354,-4.047,-238.208,33.892,-378.247,-308.818,-12.500,24.760,-11.220
251,48966.208000,-53.354,-3.036,-237.220,38.803,-382.162,-307.916,-25.500,4.760,-28.220
252,48966.230000,-56.291,-3.036,-239.197,37.797,-377.316,-308.888,-22.500,14.760,-30.220
253,48966.239000,-59.228,-2.024,-241.174,44.603,-376.412,-307.040,-17.500,33.760,-38.220
254,48966.257000,-64.122,-1.012,-241.174,41.728,-375.414,-310.929,-6.500,60.760,-49.220
255,48966.292000,-73.912,-7.083,-237.220,34.897,-379.223,-309.819,-1.500,69.760,-51.220
256,48966.310000,-82.723,-14.166,-233.266,35.926,-377.293,-313.777,4.500,94.760,-51.220
257,48966.333000,-82.723,-9.107,-231.290,39.814,-374.426,-313.849,17.500,138.760,-46.220
258,48966.365000,-75.870,-1.012,-231.290,38.878,-371.511,-317.774,11.500,157.760,-84.220
259,48966.384000,-72.933,1.012,-233.266,47.650,-373.529,-314.973,-26.500,69.760,-175.220
260,48966.402000,-75.870,-1.012,-237.220,44.767,-375.435,-316.889,-77.500,-70.240,-303.220
261,48966.415000,-84.681,-1.012,-242.162,44.819,-375.432,-319.843,-116.500,-148.240,-411.220
262,48966.442000,-90.554,1.012,-242.162,47.659,-374.496,-314.972,-131.500,-76.240,-505.220
263,48966.474000,-87.618,4.047,-241.174,51.616,-373.562,-317.997,-130.500,-9.240,-553.220
264,48966.477000,-73.912,7.083,-243.151,62.379,-371.724,-319.174,-127.500,122.760,-580.220
265,48966.495000,-64.122,1.012,-243.151,64.378,-368.836,-323.151,-122.500,136.760,-634.220
266,48966.523000,-66.080,-1.012,-240.185,68.258,-370.809,-320.263,-121.500,72.760,-674.220
267,48966.543000,-77.828,-2.024,-233.266,76.146,-367.973,-325.329,-105.500,38.760,-668.220
268,48966.558000,-83.702,1.012,-232.278,78.015,-362.188,-323.400,-77.500,76.760,-603.220
269,48966.592000,-80.765,8.095,-230.301,85.877,-360.322,-326.494,-53.500,108.760,-581.220
270,48966.595000,-81.744,13.154,-233.266,97.593,-361.398,-324.731,-70.500,15.760,-644.220
271,48966.627000,-85.660,12.142,-233.266,97.662,-361.394,-328.670,-100.500,-108.240,-754.220
272,48966.648000,-90.554,11.130,-232.278,105.455,-357.595,-328.813,-137.500,-143.240,-877.220
273,48966.663000,-89.576,12.142,-232.278,107.316,-356.651,-323.924,-159.500,-175.240,-932.220
274,48966.682000,-85.660,15.178,-237.220,118.062,-354.814,-324.117,-209.500,-203.240,-1040.220
275,48966.700000,-81.744,19.225,-237.220,128.825,-354.912,-324.307,-258.500,-245.240,-1164.220
276,48966.722000,-84.681,23.273,-239.197,135.648,-350.136,-325.418,-290.500,-233.240,-1279.220
277,48966.742000,-79.786,24.285,-240.185,147.336,-344.438,-325.631,-304.500,-118.240,-1351.220
278,48966.764000,-65.101,27.320,-243.151,156.159,-342.582,-327.758,-313.500,10.760,-1396.220
279,48966.792000,-48.459,26.308,-241.174,168.826,-334.957,-328.976,-308.500,40.760,-1408.220
280,48966.807000,-38.669,23.273,-240.185,176.671,-333.091,-331.086,-310.500,-19.240,-1402.220
281,48966.829000,-34.753,19.225,-241.174,186.383,-321.570,-333.240,-309.500,-41.240,-1364.220
282,48966.847000,-30.837,20.237,-240.185,194.228,-319.704,-335.350,-306.500,-25.240,-1345.220
283,48966.868000,-23.006,18.213,-237.220,204.011,-310.114,-340.457,-297.500,-7.240,-1276.220
284,48966.892000,-15.174,17.202,-239.197,214.676,-297.635,-341.644,-299.500,-31.240,-1211.220
285,48966.920000,-12.237,17.202,-241.174,221.500,-302.538,-337.822,-306.500,-62.240,-1160.220
286,48966.929000,-15.174,15.178,-239.197,230.252,-292.942,-339.956,-302.500,-89.240,-1099.220
287,48966.952000,-21.048,11.130,-240.185,225.377,-290.961,-341.841,-308.500,-56.240,-1013.220
288,48966.969000,-23.985,12.142,-246.116,230.214,-279.394,-344.894,-293.500,49.760,-930.220
289,48966.992000,-20.069,14.166,-245.127,233.167,-279.419,-345.931,-266.500,125.760,-858.220
290,48967.9000,-6.363,13.154,-248.093,241.036,-270.777,-352.971,-256.500,122.760,-811.220
291,48967.32000,-3.426,9.107,-249.081,239.009,-266.892,-350.971,-254.500,5.760,-801.220
292,48967.54000,-11.258,9.107,-247.104,240.912,-259.169,-351.998,-260.500,-98.240,-762.220
293,48967.77000,-13.216,11.130,-251.058,254.679,-255.418,-358.153,-243.500,-70.240,-694.220
294,48967.105000,-7.342,10.119,-253.035,253.640,-254.445,-355.182,-232.500,-44.240,-641.220
295,48967.124000,-1.468,7.083,-254.023,255.613,-248.654,-359.162,-221.500,-40.240,-585.220
296,48967.143000,3.426,5.059,-253.035,252.642,-246.694,-358.127,-204.500,0.760,-519.220
297,48967.170000,10.279,3.036,-256.000,255.603,-243.815,-361.136,-191.500,20.760,-433.220
298,48967.179000,16.153,3.036,-260.942,251.619,-241.848,-358.115,-162.500,-22.240,-323.220
299,48967.199000,21.048,1.012,-262.919,254.623,-239.935,-363.092,-141.500,-56.240,-259.220
300,48967.222000,20.069,4.047,-262.919,254.589,-239.937,-361.123,-104.500,-122.240,-145.220
301,48967.242000,12.237,7.083,-262.919,258.573,-245.776,-362.171,-62.500,-136.240,-13.220
302,48967.269000,7.342,8.095,-264.896,255.603,-245.751,-360.149,-16.500,-59.240,121.780
303,48967.284000,4.405,8.095,-267.861,247.731,-242.779,-359.029,43.500,60.760,258.780
304,48967.304000,6.363,7.083,-263.907,247.801,-242.775,-362.968,90.500,128.760,370.780
305,48967.322000,8.321,9.107,-258.965,248.737,-245.690,-359.043,118.500,105.760,456.780
306,48967.344000,9.300,12.142,-256.988,251.760,-251.519,-361.059,136.500,78.760,527.780
307,48967.362000,9.300,16.190,-254.023,243.881,-253.386,-356.980,143.500,58.760,600.780
308,48967.384000,6.363,14.166,-253.035,246.922,-261.150,-358.993,148.500,65.760,642.780
309,48967.402000,4.405,14.166,-252.046,235.215,-262.978,-359.768,163.500,105.760,726.780
310,48967.430000,6.363,19.225,-247.104,231.284,-262.943,-358.714,173.500,150.760,811.780
311,48967.453000,10.279,25.296,-249.081,221.492,-267.694,-355.582,171.500,145.760,900.780
312,48967.468000,9.300,21.249,-255.012,223.537,-273.514,-357.581,183.500,126.760,1016.780
313,48967.490000,4.405,16.190,-257.977,215.762,-281.183,-356.450,213.500,130.760,1123.780
314,48967.507000,4.405,25.296,-257.977,202.081,-281.058,-357.192,246.500,110.760,1199.780
315,48967.531000,2.447,39.462,-256.000,198.203,-288.763,-355.146,267.500,52.760,1278.780
316,48967.558000,-6.363,38.451,-256.000,187.477,-296.407,-352.978,284.500,40.760,1358.780
317,48967.591000,-18.111,30.356,-256.000,186.508,-301.237,-350.986,300.500,73.760,1389.780
318,48967.591000,-21.048,31.368,-252.046,178.734,-308.906,-349.855,326.500,112.760,1439.780
319,48967.623000,-23.985,35.415,-244.139,167.063,-314.602,-350.627,329.500,84.760,1480.780
320,48967.629000,-28.880,34.403,-233.266,154.327,-322.231,-345.470,313.500,66.760,1488.780
321,48967.651000,-25.943,29.344,-236.232,149.435,-322.186,-345.384,281.500,52.760,1486.780
322,48967.671000,-23.006,27.320,-241.174,136.812,-330.776,-346.135,255.500,-8.240,1508.780
323,48967.692000,-23.006,42.498,-241.174,120.127,-336.435,-339.926,238.500,-107.240,1496.780
324,48967.714000,-30.837,49.581,-240.185,117.218,-341.247,-338.885,236.500,-197.240,1503.780
325,48967.732000,-42.585,41.486,-238.208,102.551,-347.888,-335.664,257.500,-191.240,1539.780
326,48967.759000,-39.648,30.356,-241.174,89.814,-349.709,-333.467,268.500,-140.240,1565.780
327,48967.777000,-36.711,34.403,-243.151,72.212,-358.259,-329.208,280.500,-38.240,1610.780
328,48967.794000,-40.627,47.557,-247.104,72.222,-361.163,-328.221,269.500,-62.240,1626.780
329,48967.817000,-43.564,46.545,-248.093,51.640,-364.849,-323.914,292.500,-101.240,1686.780
330,48967.834000,-47.480,39.462,-244.139,29.187,-368.513,-324.497,335.500,-140.240,1739.780
331,48967.857000,-51.396,34.403,-242.162,27.214,-372.368,-321.504,344.500,-177.240,1757.780
332,48967.882000,-51.396,44.522,-249.081,10.520,-377.060,-315.297,346.500,-256.240,1750.780
333,48967.895000,-55.312,54.640,-253.035,6.564,-379.930,-311.286,389.500,-416.240,1747.780
334,48967.909000,-68.038,54.640,-248.093,-19.950,-380.663,-304.909,443.500,-493.240,1779.780
335,48967.946000,-86.639,49.581,-239.197,-24.798,-385.456,-304.818,470.500,-487.240,1789.780
336,48967.979000,-101.323,37.439,-237.220,-43.536,-388.199,-294.638,482.500,-347.240,1756.780
337,48967.993000,-105.239,26.308,-236.232,-55.244,-386.154,-297.387,496.500,-110.240,1721.780
338,48968.2000,-89.576,21.249,-231.290,-69.887,-384.083,-300.084,491.500,200.760,1633.780
339,48968.28000,-72.933,18.213,-232.278,-87.571,-376.184,-299.780,432.500,385.760,1545.780
340,48968.44000,-73.912,8.095,-231.290,-90.437,-376.153,-303.667,332.500,437.760,1364.780
341,48968.62000,-68.038,10.119,-233.266,-100.251,-365.419,-307.444,250.500,458.760,1244.780
342,48968.79000,-52.375,15.178,-228.324,-107.958,-363.405,-315.186,218.500,460.760,1132.780
343,48968.107000,-42.585,16.190,-230.301,-115.849,-354.626,-316.041,166.500,269.760,1092.780
344,48968.124000,-42.585,21.249,-231.290,-127.609,-350.649,-316.822,144.500,156.760,1084.780
345,48968.147000,-55.312,25.296,-230.301,-130.650,-344.821,-313.821,111.500,-61.240,1070.780
346,48968.164000,-65.101,26.308,-227.336,-141.465,-344.726,-310.677,111.500,-148.240,1078.780
347,48968.182000,-67.059,25.296,-229.313,-148.297,-344.662,-311.540,114.500,-114.240,1074.780
348,48968.207000,-71.954,20.237,-233.266,-155.243,-341.702,-307.483,91.500,-122.240,1024.780
349,48968.229000,-85.660,17.202,-230.301,-169.903,-339.632,-309.195,60.500,-86.240,928.780
350,48968.247000,-94.470,24.285,-235.243,-177.810,-336.661,-306.105,53.500,26.760,852.780
351,48968.274000,-90.554,23.273,-241.174,-179.751,-332.771,-309.029,72.500,91.760,818.780
352,48968.294000,-90.554,22.261,-236.232,-188.663,-324.953,-306.911,71.500,38.760,749.780
353,48968.314000,-108.176,25.296,-238.208,-196.465,-323.913,-308.744,66.500,-13.240,708.780
354,48968.347000,-116.987,25.296,-241.174,-192.595,-322.983,-306.844,98.500,-49.240,688.780
355,48968.375000,-124.818,25.296,-238.208,-193.599,-322.008,-305.843,121.500,-86.240,604.780
356,48968.375000,-139.503,34.403,-234.255,-202.476,-318.060,-303.722,142.500,-179.240,485.780
357,48968.388000,-167.893,33.391,-225.359,-205.376,-319.967,-304.653,146.500,-196.240,312.780
358,48968.414000,-179.641,28.332,-220.417,-200.518,-320.014,-302.770,105.500,-14.240,28.780
359,48968.438000,-173.767,21.249,-220.417,-205.299,-318.995,-309.577,32.500,129.760,-304.220
360,48968.455000,-154.187,20.237,-225.359,-192.577,-322.982,-307.829,-55.500,102.760,-607.220
361,48968.477000,-139.503,22.261,-227.336,-185.692,-326.914,-307.946,-146.500,-40.240,-878.220
362,48968.500000,-136.566,26.308,-228.324,-178.780,-333.748,-308.060,-182.500,-80.240,-984.220
363,48968.523000,-128.734,27.320,-230.301,-176.858,-333.768,-306.126,-233.500,-73.240,-1172.220
364,48968.543000,-119.924,31.368,-229.313,-168.985,-340.612,-305.272,-254.500,-98.240,-1321.220
365,48968.563000,-119.924,34.403,-228.324,-154.342,-342.683,-302.576,-267.500,-177.240,-1420.220
366,48968.580000,-122.860,38.451,-235.243,-143.481,-353.422,-302.755,-259.500,-112.240,-1465.220
367,48968.606000,-107.197,40.474,-240.185,-139.557,-358.297,-300.850,-254.500,13.760,-1570.220
368,48968.627000,-88.597,42.498,-238.208,-115.959,-363.343,-305.199,-286.500,-90.240,-1741.220
369,48968.642000,-92.512,41.486,-231.290,-106.103,-373.107,-304.378,-332.500,-275.240,-1840.220
370,48968.658000,-112.092,41.486,-233.266,-94.395,-375.152,-301.629,-345.500,-254.240,-1852.220
371,48968.679000,-105.239,47.557,-241.174,-71.812,-374.384,-306.952,-335.500,64.760,-1872.220
372,48968.702000,-71.954,55.652,-243.151,-59.082,-379.339,-305.203,-315.500,246.760,-1963.220
373,48968.719000,-51.396,54.640,-235.243,-36.489,-381.474,-309.538,-338.500,25.760,-2065.220
374,48968.742000,-61.185,48.569,-232.278,-29.700,-382.508,-305.719,-397.500,-195.240,-2117.220
375,48968.793000,-77.828,51.605,-242.162,-10.078,-382.683,-309.019,-393.500,27.760,-2116.220
376,48968.812000,-62.164,58.688,-246.116,16.392,-380.985,-313.427,-340.500,251.760,-2086.220
377,48968.812000,-46.501,56.664,-241.174,34.022,-379.208,-315.710,-322.500,159.760,-2046.220
378,48968.827000,-41.606,52.617,-243.151,57.487,-373.615,-318.101,-312.500,66.760,-2031.220
379,48968.849000,-37.690,54.640,-249.081,56.560,-373.603,-321.038,-293.500,69.760,-2029.220
380,48968.867000,-36.711,54.640,-245.127,79.982,-367.045,-321.460,-264.500,68.760,-1982.220
381,48968.883000,-39.648,43.510,-239.197,87.878,-363.241,-327.511,-247.500,50.760,-1888.220
382,48968.897000,-42.585,40.474,-234.255,113.230,-355.734,-326.984,-237.500,103.760,-1804.220
383,48968.924000,-34.753,48.569,-238.208,118.122,-351.907,-329.043,-232.500,160.760,-1775.220
384,48968.947000,-24.964,53.628,-241.174,136.702,-343.365,-333.320,-234.500,93.760,-1767.220
385,48968.969000,-21.048,48.569,-237.220,156.210,-336.771,-333.673,-250.500,-36.240,-1778.220
386,48968.988000,-33.774,38.451,-228.324,160.148,-330.030,-338.673,-274.500,-17.240,-1773.220
387,48969.8000,-35.732,36.427,-233.266,176.727,-316.634,-342.920,-297.500,88.760,-1761.220
388,48969.29000,-18.111,44.522,-241.174,190.416,-311.920,-345.136,-306.500,71.760,-1759.220
389,48969.50000,-12.237,37.439,-239.197,204.970,-302.381,-343.436,-331.500,-72.240,-1757.220
390,48969.82000,-19.090,33.391,-240.185,214.754,-300.534,-344.596,-345.500,-155.240,-1753.220
391,48969.104000,-22.027,34.403,-236.232,217.626,-287.982,-347.615,-336.500,-44.240,-1720.220
392,48969.119000,-18.111,33.391,-237.220,239.124,-275.596,-352.932,-346.500,114.760,-1641.220
393,48969.142000,10.279,33.391,-241.174,234.124,-262.007,-353.844,-340.500,238.760,-1558.220
394,48969.159000,27.901,29.344,-240.185,246.781,-249.544,-357.035,-339.500,146.760,-1555.220
395,48969.179000,28.880,19.225,-238.208,251.680,-242.812,-361.068,-379.500,-91.240,-1540.220
396,48969.212000,23.985,16.190,-245.127,262.441,-235.167,-365.205,-436.500,-224.240,-1477.220
397,48969.242000,34.753,21.249,-254.023,259.461,-230.303,-365.158,-444.500,-223.240,-1429.220
398,48969.259000,54.333,19.225,-257.977,268.214,-222.643,-366.306,-423.500,-263.240,-1310.220
399,48969.259000,60.207,13.154,-262.919,271.122,-215.896,-368.334,-407.500,-394.240,-1172.220
400,48969.282000,57.270,12.142,-267.861,276.924,-217.889,-363.513,-401.500,-562.240,-1030.220
401,48969.299000,42.585,16.190,-272.803,275.010,-216.901,-366.433,-377.500,-575.240,-863.220
402,48969.327000,35.732,16.190,-277.745,273.002,-218.822,-362.458,-305.500,-378.240,-640.220
403,48969.342000,39.648,10.119,-279.722,273.053,-214.947,-367.385,-198.500,-97.240,-400.220
404,48969.359000,44.543,6.071,-274.780,273.017,-211.078,-367.389,-99.500,153.760,-160.220
405,48969.382000,53.354,8.095,-271.815,275.986,-207.231,-371.384,-30.500,287.760,72.780
406,48969.398000,64.122,10.119,-268.849,275.008,-209.158,-370.380,4.500,301.760,177.780
407,48969.416000,69.017,14.166,-266.873,277.034,-209.172,-374.354,38.500,231.760,347.780
408,48969.443000,65.101,14.166,-268.849,273.130,-213.975,-372.310,57.500,94.760,487.780
409,48969.460000,52.375,13.154,-265.884,265.336,-211.966,-375.128,73.500,1.760,608.780
410,48969.483000,46.501,19.225,-262.919,261.476,-219.671,-374.066,111.500,34.760,733.780
411,48969.505000,47.480,24.285,-257.977,258.576,-223.514,-374.010,149.500,112.760,887.780
412,48969.533000,47.480,30.356,-262.919,255.617,-230.264,-369.028,158.500,123.760,1053.780
413,48969.539000,41.606,32.379,-265.884,242.033,-238.844,-370.746,189.500,138.760,1242.780
414,48969.568000,39.648,42.498,-269.838,239.168,-244.621,-371.673,231.500,147.760,1387.780
415,48969.587000,36.711,50.593,-266.873,232.322,-258.109,-364.645,262.500,138.760,1456.780
416,48969.617000,23.985,53.628,-266.873,225.526,-263.851,-364.518,300.500,94.760,1587.780
417,48969.621000,15.174,54.640,-264.896,208.989,-272.405,-365.200,341.500,107.760,1717.780
418,48969.642000,16.153,61.723,-258.965,208.981,-277.245,-362.241,383.500,161.760,1825.780
419,48969.665000,12.237,63.747,-251.058,194.341,-286.789,-359.017,387.500,164.760,1934.780
420,48969.687000,1.468,59.700,-254.023,185.666,-295.413,-361.807,388.500,130.760,2067.780
421,48969.707000,0.489,62.735,-251.058,165.173,-304.902,-359.465,419.500,190.760,2169.780
422,48969.729000,-2.447,71.842,-241.174,164.267,-318.439,-356.479,426.500,173.760,2241.780
423,48969.752000,-5.384,70.830,-238.208,138.834,-317.240,-357.015,411.500,96.760,2308.780
424,48969.774000,-13.216,68.806,-243.151,116.297,-326.716,-349.714,407.500,53.760,2335.780
425,48969.794000,-16.153,74.877,-244.139,110.479,-330.531,-350.591,402.500,-14.240,2362.780
426,48969.812000,-16.153,78.925,-245.127,87.077,-344.832,-347.207,403.500,-72.240,2387.780
427,48969.844000,-17.132,76.901,-248.093,75.309,-347.630,-344.042,397.500,-220.240,2419.780
428,48969.863000,-26.922,71.842,-241.174,55.681,-356.167,-335.809,393.500,-400.240,2400.780
429,48969.882000,-32.795,81.960,-240.185,43.932,-360.900,-332.643,413.500,-479.240,2357.780
430,48969.891000,-40.627,86.008,-238.208,21.299,-369.413,-320.419,438.500,-559.240,2382.780
431,48969.920000,-55.312,82.972,-242.162,-7.092,-378.835,-313.999,476.500,-626.240,2451.780
432,48969.936000,-71.954,83.984,-246.116,-25.761,-381.574,-307.758,549.500,-531.240,2504.780
433,48969.962000,-72.933,88.032,-239.197,-50.222,-385.223,-305.352,582.500,-459.240,2513.780
434,48969.979000,-75.870,88.032,-233.266,-55.218,-385.185,-299.357,608.500,-404.240,2478.780
435,48970.7000,-90.554,78.925,-237.220,-82.738,-383.007,-292.966,639.500,-486.240,2497.780
436,48970.22000,-100.344,70.830,-236.232,-95.536,-383.863,-287.817,684.500,-352.240,2499.780
437,48970.39000,-101.323,64.759,-230.301,-118.103,-378.823,-286.439,644.500,-113.240,2358.780
438,48970.59000,-94.470,59.700,-232.278,-134.704,-372.862,-291.074,575.500,-53.240,2189.780
439,48970.87000,-86.639,54.640,-238.208,-149.565,-365.964,-283.928,571.500,-208.240,2101.780
440,48970.104000,-84.681,50.593,-232.278,-171.102,-358.993,-286.509,545.500,-302.240,1975.780
441,48970.128000,-107.197,47.557,-223.382,-172.167,-358.989,-281.568,498.500,-262.240,1826.780
442,48970.145000,-122.860,52.617,-226.347,-187.825,-351.104,-285.238,507.500,-53.240,1812.780
443,48970.168000,-119.924,51.605,-225.359,-202.547,-344.197,-285.970,555.500,159.760,1791.780
444,48970.188000,-113.071,38.451,-219.429,-218.179,-335.343,-291.610,518.500,205.760,1735.780
445,48970.232000,-116.008,27.320,-213.498,-227.067,-322.684,-293.437,423.500,159.760,1564.780
446,48970.232000,-120.902,29.344,-220.417,-233.987,-314.883,-293.323,360.500,96.760,1441.780
447,48970.261000,-123.839,35.415,-220.417,-238.899,-307.096,-296.199,325.500,2.760,1347.780
448,48970.263000,-129.713,34.403,-214.486,-245.731,-307.033,-297.063,268.500,-72.240,1202.780
449,48970.284000,-146.356,26.308,-209.544,-250.765,-295.381,-295.018,200.500,-68.240,1016.780
450,48970.304000,-153.208,27.320,-219.429,-260.525,-292.387,-297.803,189.500,-34.240,841.780
451,48970.332000,-148.314,27.320,-221.405,-263.583,-284.624,-294.804,175.500,5.760,754.780
452,48970.347000,-147.335,24.285,-218.440,-262.526,-287.533,-297.773,119.500,-22.240,560.780
453,48970.369000,-164.956,30.356,-216.463,-264.553,-285.583,-294.786,64.500,-21.240,347.780
454,48970.392000,-183.556,39.462,-217.452,-265.584,-281.705,-293.788,38.500,110.760,157.780
455,48970.412000,-187.472,37.439,-213.498,-273.282,-282.595,-300.542,10.500,298.760,-66.220
456,48970.434000,-160.061,35.415,-207.568,-260.597,-280.777,-299.784,-34.500,303.760,-353.220
457,48970.452000,-157.124,36.427,-208.556,-263.454,-283.649,-302.683,-109.500,119.760,-666.220
458,48970.479000,-161.040,42.498,-215.475,-255.590,-287.590,-302.818,-197.500,-31.240,-925.220
459,48970.503000,-156.145,49.581,-227.336,-249.675,-292.480,-302.917,-242.500,-58.240,-1143.220
460,48970.524000,-150.272,46.545,-226.347,-239.827,-301.277,-302.096,-288.500,-32.240,-1248.220
461,48970.541000,-152.229,48.569,-225.359,-226.099,-313.983,-297.402,-328.500,-51.240,-1480.220
462,48970.558000,-145.377,59.700,-233.266,-223.111,-317.878,-298.435,-362.500,-66.240,-1669.220
463,48970.584000,-129.713,58.688,-237.220,-212.258,-327.650,-298.615,-376.500,-6.240,-1833.220
464,48970.603000,-122.860,56.664,-230.301,-196.549,-335.532,-297.899,-387.500,-7.240,-2016.220
465,48970.618000,-126.776,59.700,-225.359,-174.006,-347.350,-294.347,-423.500,-59.240,-2167.220
466,48970.639000,-116.008,64.759,-231.290,-169.995,-352.219,-297.365,-474.500,-24.240,-2222.220
467,48970.660000,-93.491,67.794,-237.220,-148.414,-362.091,-295.767,-498.500,3.760,-2315.220
468,48970.677000,-85.660,64.759,-233.266,-124.850,-372.947,-295.186,-517.500,-57.240,-2455.220
469,48970.698000,-93.491,64.759,-229.313,-112.145,-380.807,-290.480,-573.500,-251.240,-2507.220
470,48970.721000,-105.239,70.830,-233.266,-86.650,-388.778,-289.937,-621.500,-310.240,-2585.220
471,48970.738000,-88.597,80.949,-243.151,-68.118,-391.855,-285.339,-632.500,-125.240,-2623.220
472,48970.760000,-71.954,80.949,-240.185,-40.599,-395.968,-290.743,-611.500,21.760,-2682.220
473,48970.780000,-62.164,77.913,-238.208,-30.822,-397.026,-289.931,-613.500,-13.240,-2696.220
474,48970.798000,-59.228,78.925,-242.162,-4.316,-397.261,-295.322,-627.500,-44.240,-2698.220
475,48970.825000,-48.459,81.960,-246.116,17.089,-395.528,-289.796,-622.500,2.760,-2688.220
476,48970.850000,-36.711,80.949,-248.093,41.611,-392.843,-295.155,-607.500,1.760,-2703.220
477,48970.869000,-33.774,73.866,-246.116,76.923,-393.159,-300.702,-599.500,-37.240,-2685.220
478,48970.898000,-35.732,64.759,-243.151,83.772,-389.349,-302.796,-591.500,-89.240,-2610.220
479,48970.912000,-22.027,70.830,-250.069,113.054,-378.006,-305.296,-575.500,15.760,-2525.220
480,48970.939000,-12.237,68.806,-250.069,128.691,-372.342,-307.549,-538.500,81.760,-2463.220
481,48970.954000,-7.342,61.723,-242.162,145.297,-361.847,-311.792,-504.500,15.760,-2314.220
482,48970.972000,-4.405,46.545,-240.185,160.901,-360.057,-310.102,-476.500,-39.240,-2156.220
483,48970.992000,-1.468,44.522,-245.127,180.467,-346.684,-317.355,-465.500,-34.240,-2048.220
484,48971.15000,2.447,49.581,-251.058,196.994,-331.355,-319.634,-446.500,-50.240,-1936.220
485,48971.29000,-0.489,45.534,-247.104,196.984,-326.516,-321.608,-421.500,-67.240,-1797.220
486,48971.49000,-2.447,34.403,-242.162,218.473,-315.099,-325.940,-411.500,-49.240,-1736.220
487,48971.77000,6.363,27.320,-245.127,226.274,-312.268,-326.081,-397.500,38.760,-1630.220
488,48971.97000,10.279,24.285,-245.127,233.076,-295.879,-332.127,-394.500,61.760,-1540.220
489,48971.119000,8.321,22.261,-241.174,239.916,-293.038,-333.236,-404.500,50.760,-1437.220
490,48971.134000,11.258,18.213,-243.151,248.685,-281.505,-337.343,-391.500,99.760,-1312.220
491,48971.157000,19.090,14.166,-247.104,263.377,-271.959,-343.520,-387.500,140.760,-1240.220
492,48971.174000,26.922,14.166,-254.023,264.310,-263.259,-345.516,-380.500,84.760,-1178.220
493,48971.183000,34.753,9.107,-253.035,269.097,-253.631,-344.628,-356.500,10.760,-1078.220
494,48971.215000,39.648,3.036,-256.000,268.160,-248.780,-349.539,-361.500,-82.240,-987.220
495,48971.236000,41.606,3.036,-265.884,273.025,-243.986,-350.615,-364.500,-130.240,-938.220
496,48971.257000,42.585,8.095,-271.815,268.141,-241.038,-352.501,-333.500,-186.240,-800.220
497,48971.293000,45.522,1.012,-274.780,270.097,-239.120,-353.522,-260.500,-153.240,-622.220
498,48971.307000,44.543,-6.071,-275.768,273.007,-238.180,-352.590,-206.500,-82.240,-447.220
499,48971.326000,43.564,-5.059,-276.757,275.899,-237.241,-350.674,-143.500,13.760,-249.220
500,48971.341000,47.480,-2.024,-277.745,271.074,-233.321,-356.500,-65.500,90.760,-20.220
501,48971.358000,54.333,-1.012,-275.768,273.984,-234.317,-354.581,4.500,55.760,188.780
502,48971.381000,46.501,-2.024,-271.815,271.127,-237.190,-357.481,49.500,-22.240,377.780
503,48971.408000,36.711,0.000,-265.884,273.050,-237.209,-355.546,107.500,-2.240,536.780
504,48971.423000,29.859,5.059,-263.907,261.379,-246.778,-354.344,132.500,20.760,608.780
505,48971.445000,23.985,6.071,-261.931,263.363,-247.762,-355.362,160.500,63.760,708.780
506,48971.468000,19.090,7.083,-260.942,258.489,-255.460,-352.313,172.500,120.760,796.780
507,48971.490000,20.069,12.142,-262.919,249.745,-260.216,-353.138,196.500,177.760,893.780
508,48971.506000,21.048,15.178,-259.954,243.892,-264.033,-352.045,218.500,172.760,995.780
509,48971.521000,19.090,15.178,-255.012,247.894,-269.871,-354.078,228.500,175.760,1090.780
510,48971.534000,18.111,21.249,-255.012,235.191,-271.690,-353.851,237.500,157.760,1181.780
511,48971.589000,17.132,27.320,-256.988,225.434,-278.375,-351.702,262.500,181.760,1294.780
512,48971.598000,16.153,30.356,-255.012,225.452,-282.245,-350.713,272.500,227.760,1394.780
513,48971.615000,13.216,35.415,-254.023,216.787,-291.836,-353.502,277.500,247.760,1462.780
514,48971.632000,12.237,36.427,-254.023,201.177,-300.403,-351.247,295.500,270.760,1583.780
515,48971.649000,17.132,40.474,-250.069,190.440,-303.207,-351.054,301.500,238.760,1677.780
516,48971.667000,19.090,45.534,-249.081,173.869,-313.699,-348.779,303.500,141.760,1764.780
517,48971.689000,17.132,49.581,-244.139,168.025,-318.484,-347.686,281.500,0.760,1826.780
518,48971.712000,3.426,53.628,-246.116,147.513,-324.102,-346.332,283.500,-80.240,1932.780
519,48971.732000,-4.405,56.664,-252.046,141.670,-334.694,-342.278,327.500,-77.240,2028.780
520,48971.755000,-6.363,60.711,-247.104,122.120,-344.194,-337.983,334.500,-162.240,2065.780
521,48971.777000,-35.732,67.794,-239.197,102.597,-356.596,-333.686,354.500,-193.240,2120.780
522,48971.798000,-45.522,62.735,-244.139,87.860,-359.370,-328.499,368.500,-175.240,2170.780
523,48971.813000,-33.774,68.806,-248.093,68.266,-367.905,-322.236,400.500,-76.240,2279.780
524,48971.841000,-34.753,74.877,-240.185,56.549,-364.893,-324.986,429.500,-75.240,2342.780
525,48971.849000,-53.354,77.913,-240.185,33.024,-371.457,-318.655,428.500,-180.240,2379.780
526,48971.863000,-57.270,73.866,-244.139,16.452,-378.077,-318.354,446.500,-187.240,2426.780
527,48971.891000,-54.333,67.794,-237.220,-11.032,-377.833,-312.946,484.500,-123.240,2429.780
528,48971.916000,-68.038,65.771,-239.197,-21.770,-376.766,-314.726,472.500,-108.240,2408.780
529,48971.934000,-74.891,62.735,-243.151,-45.366,-375.591,-308.403,474.500,0.760,2420.780
530,48971.957000,-55.312,59.700,-246.116,-68.842,-372.473,-309.960,472.500,128.760,2426.780
531,48971.978000,-39.648,60.711,-247.104,-81.633,-368.490,-307.770,458.500,70.760,2396.780
532,48972.2000,-49.438,65.771,-242.162,-105.143,-367.310,-306.371,429.500,-216.240,2338.780
533,48972.19000,-87.618,61.723,-236.232,-116.036,-368.187,-298.301,405.500,-429.240,2156.780
534,48972.38000,-104.260,55.652,-247.104,-138.682,-360.247,-293.972,393.500,-329.240,2055.780
535,48972.61000,-94.470,52.617,-240.185,-140.579,-357.322,-298.864,425.500,-109.240,1975.780
536,48972.81000,-92.512,54.640,-232.278,-161.180,-353.267,-297.520,403.500,-28.240,1856.780
537,48972.99000,-102.302,55.652,-227.336,-178.821,-346.333,-299.185,381.500,5.760,1780.780
538,48972.132000,-108.176,53.628,-224.371,-189.663,-339.464,-298.017,374.500,105.760,1725.780
539,48972.147000,-108.176,50.593,-220.417,-198.481,-330.674,-301.809,348.500,168.760,1655.780
540,48972.164000,-111.113,47.557,-223.382,-209.324,-321.869,-301.627,326.500,150.760,1622.780
541,48972.187000,-115.029,45.534,-219.429,-223.034,-313.034,-305.333,303.500,44.760,1548.780
542,48972.209000,-112.092,45.534,-218.440,-225.052,-310.116,-303.332,264.500,-64.240,1479.780
543,48972.229000,-118.945,42.498,-216.463,-236.883,-302.271,-302.147,218.500,-213.240,1370.780
544,48972.257000,-142.440,33.391,-215.475,-246.790,-298.317,-297.054,160.500,-367.240,1161.780
545,48972.289000,-165.935,35.415,-219.429,-254.670,-298.249,-293.961,123.500,-372.240,950.780
546,48972.303000,-186.493,42.498,-218.440,-259.536,-297.235,-295.845,110.500,-218.240,749.780
547,48972.317000,-197.262,36.427,-219.429,-251.814,-291.505,-293.035,66.500,-8.240,531.780
548,48972.323000,-188.451,31.368,-219.429,-263.530,-288.493,-295.785,31.500,156.760,282.780
549,48972.344000,-180.620,31.368,-216.463,-265.496,-287.508,-295.751,0.500,146.760,92.780
550,48972.372000,-180.620,39.462,-216.463,-260.542,-290.453,-297.805,-68.500,27.760,-306.220
551,48972.389000,-181.598,45.534,-217.452,-259.607,-291.432,-294.867,-129.500,-57.240,-630.220
552,48972.413000,-174.746,48.569,-221.405,-247.802,-300.246,-294.081,-185.500,-6.240,-895.220
553,48972.429000,-162.019,46.545,-219.429,-242.840,-304.158,-296.133,-234.500,84.760,-1133.220
554,48972.452000,-149.293,49.581,-222.394,-232.975,-311.018,-297.284,-279.500,92.760,-1345.220
555,48972.472000,-146.356,53.628,-221.405,-222.254,-315.958,-292.545,-320.500,45.760,-1498.220
556,48972.494000,-141.461,59.700,-225.359,-215.263,-325.691,-295.611,-353.500,52.760,-1613.220
557,48972.503000,-122.860,59.700,-234.255,-205.486,-330.620,-292.825,-363.500,71.760,-1772.220
558,48972.535000,-112.092,53.628,-229.313,-193.639,-336.528,-295.981,-374.500,4.760,-1869.220
559,48972.553000,-117.966,55.652,-219.429,-178.941,-348.276,-291.305,-417.500,-132.240,-2046.220
560,48972.573000,-121.881,65.771,-226.347,-155.420,-358.166,-288.756,-464.500,-102.240,-2121.220
561,48972.594000,-104.260,69.818,-238.208,-142.551,-365.049,-293.898,-476.500,94.760,-2183.220
562,48972.622000,-95.449,66.783,-230.301,-121.914,-372.974,-295.238,-496.500,102.760,-2318.220
563,48972.637000,-97.407,67.794,-223.382,-116.025,-376.898,-294.353,-536.500,51.760,-2341.220
564,48972.659000,-85.660,79.937,-238.208,-79.784,-384.968,-293.016,-542.500,133.760,-2394.220
565,48972.683000,-69.996,80.949,-246.116,-76.762,-384.990,-297.992,-531.500,98.760,-2497.220
566,48972.709000,-71.954,76.901,-235.243,-47.390,-387.192,-298.509,-529.500,36.760,-2498.220
567,48972.728000,-71.954,76.901,-235.243,-37.465,-393.080,-303.600,-547.500,-44.240,-2472.220
568,48972.747000,-54.333,88.032,-248.093,-9.184,-392.376,-299.179,-544.500,-14.240,-2516.220
569,48972.767000,-53.354,83.984,-243.151,20.127,-391.677,-297.730,-539.500,-138.240,-2539.220
570,48972.787000,-60.207,76.901,-239.197,29.885,-386.928,-298.892,-552.500,-198.240,-2463.220
571,48972.809000,-51.396,79.937,-246.116,58.357,-390.085,-303.330,-547.500,-128.240,-2452.220
572,48972.813000,-46.501,86.008,-248.093,68.072,-386.306,-301.537,-541.500,-96.240,-2492.220
573,48972.836000,-53.354,74.877,-239.197,98.386,-378.839,-305.036,-541.500,-3.240,-2410.220
574,48972.854000,-47.480,71.842,-240.185,104.230,-374.055,-306.129,-518.500,169.760,-2348.220
575,48972.879000,-26.922,69.818,-243.151,125.771,-364.571,-312.428,-508.500,211.760,-2314.220
576,48972.902000,-9.300,66.783,-246.116,154.196,-353.211,-321.805,-491.500,188.760,-2301.220
577,48972.922000,-1.468,62.735,-244.139,166.828,-343.653,-322.039,-494.500,59.760,-2226.220
578,48972.949000,3.426,54.640,-245.127,182.464,-332.181,-327.252,-488.500,-39.240,-2125.220
579,48972.969000,9.300,49.581,-249.081,187.356,-332.226,-327.338,-468.500,-77.240,-2043.220
580,48972.992000,10.279,50.593,-246.116,211.789,-319.867,-332.707,-450.500,-81.240,-1956.220
581,48973.7000,11.258,48.569,-246.116,212.609,-308.270,-329.782,-438.500,-57.240,-1824.220
582,48973.38000,14.195,39.462,-246.116,228.279,-296.797,-336.964,-419.500,36.760,-1666.220
583,48973.51000,25.943,33.391,-250.069,237.005,-284.299,-339.102,-396.500,106.760,-1518.220
584,48973.79000,41.606,30.356,-253.035,243.897,-281.455,-343.165,-380.500,87.760,-1444.220
585,48973.94000,45.522,21.249,-248.093,253.609,-269.933,-345.319,-374.500,8.760,-1283.220
586,48973.110000,46.501,11.130,-252.046,249.694,-266.026,-347.223,-372.500,-24.240,-1105.220
587,48973.142000,52.375,11.130,-262.919,259.460,-260.308,-349.372,-351.500,-31.240,-942.220
588,48973.161000,42.585,7.083,-270.826,261.433,-254.518,-353.351,-313.500,-8.240,-761.220
589,48973.179000,49.438,5.059,-273.792,268.256,-249.742,-354.462,-251.500,90.760,-559.220
590,48973.202000,63.143,3.036,-278.734,260.418,-244.832,-356.298,-171.500,153.760,-361.220
591,48973.219000,68.038,0.000,-273.792,258.513,-244.811,-359.217,-99.500,102.760,-171.220
592,48973.237000,56.291,2.024,-276.757,266.280,-243.918,-356.403,-51.500,0.760,-22.220
593,48973.262000,48.459,2.024,-276.757,261.421,-240.000,-360.259,-23.500,-18.240,61.780
594,48973.278000,47.480,5.059,-273.792,258.486,-243.845,-358.234,36.500,45.760,248.780
595,48973.294000,52.375,10.119,-274.780,260.487,-246.764,-359.250,83.500,89.760,409.780
596,48973.317000,51.396,9.107,-268.849,254.643,-249.613,-359.143,129.500,62.760,560.780
597,48973.337000,44.543,11.130,-264.896,252.731,-254.432,-359.104,162.500,18.760,684.780
598,48973.358000,36.711,17.202,-263.907,245.848,-258.243,-355.040,190.500,38.760,827.780
599,48973.378000,38.669,20.237,-261.931,238.039,-265.914,-351.939,237.500,131.760,1002.780
600,48973.399000,43.564,24.285,-256.000,238.065,-266.881,-352.923,270.500,192.760,1175.780
601,48973.422000,35.732,31.368,-250.069,221.475,-271.566,-352.624,277.500,196.760,1334.780
602,48973.449000,31.816,35.415,-256.000,230.380,-284.224,-351.782,279.500,193.760,1412.780
603,48973.465000,30.837,40.474,-252.046,210.873,-292.753,-350.443,306.500,189.760,1565.780
604,48973.483000,24.964,47.557,-251.058,199.175,-293.612,-352.204,314.500,167.760,1682.780
605,48973.497000,15.174,51.605,-250.069,193.394,-307.104,-350.117,316.500,109.760,1798.780
606,48973.524000,10.279,56.664,-249.081,168.016,-315.581,-348.673,333.500,91.760,1911.780
607,48973.542000,2.447,59.700,-252.046,164.077,-320.386,-344.660,352.500,54.760,2015.780
608,48973.582000,-3.426,62.735,-248.093,147.549,-331.844,-344.354,376.500,18.760,2119.780
609,48973.596000,-8.321,66.783,-243.151,132.848,-338.487,-339.164,389.500,-42.240,2185.780
610,48973.623000,-22.027,68.806,-239.197,113.341,-348.952,-336.838,393.500,-124.240,2265.780
611,48973.626000,-38.669,68.806,-244.139,108.345,-348.914,-330.843,400.500,-144.240,2307.780
612,48973.647000,-35.732,72.854,-247.104,77.157,-360.237,-331.262,454.500,-91.240,2415.780
613,48973.669000,-31.816,77.913,-241.174,75.175,-365.060,-327.284,497.500,-48.240,2478.780
614,48973.692000,-33.774,83.984,-241.174,41.925,-370.564,-324.720,490.500,-137.240,2498.780
615,48973.714000,-37.690,81.960,-248.093,14.529,-376.122,-321.276,505.500,-281.240,2578.780
616,48973.737000,-36.711,79.937,-251.058,-1.239,-376.954,-314.104,558.500,-389.240,2675.780
617,48973.757000,-36.711,88.032,-247.104,-21.785,-384.510,-309.794,595.500,-499.240,2713.780
618,48973.777000,-52.375,95.115,-242.162,-38.558,-386.302,-300.635,652.500,-558.240,2762.780
619,48973.797000,-72.933,94.103,-238.208,-66.986,-386.047,-297.179,720.500,-533.240,2838.780
620,48973.812000,-79.786,86.008,-236.232,-88.590,-386.824,-291.874,750.500,-362.240,2876.780
621,48973.836000,-77.828,81.960,-236.232,-114.032,-380.785,-294.384,762.500,-203.240,2892.780
622,48973.849000,-82.723,75.889,-233.266,-138.644,-371.860,-290.021,734.500,-128.240,2801.780
623,48973.869000,-82.723,68.806,-231.290,-155.289,-364.934,-292.688,673.500,-121.240,2689.780
624,48973.914000,-76.849,64.759,-233.266,-175.969,-356.044,-289.379,600.500,-244.240,2560.780
625,48973.928000,-84.681,61.723,-229.313,-183.884,-354.041,-285.304,550.500,-475.240,2370.780
626,48973.942000,-106.218,56.664,-226.347,-203.611,-348.065,-279.055,492.500,-573.240,2146.780
627,48973.951000,-122.860,52.617,-226.347,-210.531,-342.199,-277.955,464.500,-432.240,1964.780
628,48973.973000,-121.881,56.664,-229.313,-236.060,-334.230,-276.528,462.500,-337.240,1798.780
629,48973.993000,-124.818,57.676,-223.382,-236.192,-325.526,-273.583,485.500,-217.240,1727.780
630,48974.12000,-143.419,48.569,-212.510,-247.962,-318.645,-275.352,479.500,-67.240,1546.780
631,48974.26000,-147.335,46.545,-209.544,-258.815,-305.002,-277.144,427.500,217.760,1446.780
632,48974.53000,-132.650,53.628,-210.533,-269.493,-301.028,-283.851,382.500,365.760,1382.780
633,48974.76000,-128.734,49.581,-212.510,-273.419,-290.346,-288.717,305.500,202.760,1256.780
634,48974.98000,-135.587,42.498,-209.544,-285.223,-281.531,-289.503,216.500,17.760,1089.780
635,48974.116000,-149.293,45.534,-208.556,-287.277,-276.679,-286.519,151.500,-97.240,882.780
636,48974.143000,-160.061,49.581,-207.568,-291.217,-273.742,-286.452,108.500,-169.240,701.780
637,48974.156000,-172.788,50.593,-205.591,-290.291,-271.818,-284.502,85.500,-181.240,612.780
638,48974.183000,-195.304,50.593,-204.602,-290.344,-269.885,-282.534,32.500,-126.240,387.780
639,48974.201000,-220.757,44.522,-204.602,-298.189,-267.879,-282.398,-30.500,93.760,109.780
640,48974.221000,-208.031,43.510,-210.533,-298.138,-265.940,-286.339,-75.500,352.760,-160.220
641,48974.243000,-181.598,49.581,-206.579,-293.201,-268.886,-287.407,-132.500,297.760,-516.220
642,48974.268000,-168.872,56.664,-201.637,-282.437,-272.855,-285.624,-213.500,38.760,-859.220
643,48974.286000,-175.725,58.688,-204.602,-289.250,-280.534,-283.526,-306.500,-68.240,-1116.220
644,48974.308000,-179.641,61.723,-213.498,-266.664,-291.381,-282.928,-357.500,29.760,-1335.220
645,48974.328000,-172.788,63.747,-215.475,-263.597,-300.112,-285.926,-393.500,128.760,-1549.220
646,48974.360000,-163.977,66.783,-221.405,-256.798,-304.048,-281.119,-416.500,139.760,-1659.220
647,48974.363000,-151.250,72.854,-225.359,-245.858,-319.623,-283.263,-448.500,87.760,-1859.220
648,48974.404000,-147.335,72.854,-218.440,-230.226,-326.542,-278.610,-481.500,17.760,-2031.220
649,48974.423000,-147.335,81.960,-217.452,-211.467,-339.284,-281.880,-522.500,28.760,-2172.220
650,48974.432000,-137.545,88.032,-221.405,-209.535,-344.143,-277.971,-549.500,52.760,-2273.220
651,48974.452000,-125.797,90.055,-220.417,-188.844,-359.808,-278.318,-583.500,1.760,-2393.220
652,48974.474000,-120.902,89.043,-215.475,-169.282,-364.826,-275.705,-652.500,-51.240,-2508.220
653,48974.488000,-110.134,93.091,-224.371,-146.625,-383.412,-275.100,-697.500,-76.240,-2635.220
654,48974.502000,-104.260,92.079,-228.324,-122.161,-387.506,-273.559,-749.500,-102.240,-2802.220
655,48974.527000,-105.239,91.067,-226.347,-105.430,-396.363,-274.829,-779.500,-102.240,-2870.220
656,48974.554000,-106.218,99.162,-230.301,-73.095,-399.558,-276.382,-807.500,5.760,-2915.220
657,48974.572000,-71.954,105.233,-239.197,-62.271,-402.556,-278.539,-796.500,162.760,-2949.220
658,48974.594000,-66.080,99.162,-235.243,-29.920,-403.814,-282.063,-795.500,183.760,-3008.220
659,48974.619000,-65.101,100.174,-234.255,-11.284,-406.885,-283.374,-796.500,141.760,-2986.220
660,48974.634000,-49.438,106.245,-236.232,22.035,-403.313,-288.890,-775.500,187.760,-2941.220
661,48974.657000,-40.627,105.233,-241.174,57.251,-398.794,-291.487,-744.500,193.760,-2896.220
662,48974.674000,-34.753,94.103,-239.197,59.233,-395.907,-294.479,-723.500,104.760,-2800.220
663,48974.706000,-27.901,84.996,-234.255,89.565,-388.439,-298.962,-707.500,52.760,-2691.220
664,48974.724000,-20.069,88.032,-238.208,107.167,-381.825,-302.234,-711.500,-35.240,-2656.220
665,48974.742000,-16.153,92.079,-249.081,128.605,-374.282,-301.638,-730.500,-123.240,-2612.220
666,48974.764000,-13.216,87.020,-256.000,144.225,-366.683,-303.892,-725.500,-197.240,-2550.220
667,48974.787000,-21.048,75.889,-250.069,167.716,-362.057,-307.267,-717.500,-222.240,-2470.220
668,48974.804000,-16.153,72.854,-256.000,171.566,-349.513,-310.303,-703.500,-91.240,-2388.220
669,48974.827000,-1.468,78.925,-259.954,195.021,-337.146,-315.654,-651.500,141.760,-2318.220
670,48974.843000,14.195,67.794,-258.965,210.603,-317.934,-321.859,-563.500,325.760,-2125.220
671,48974.871000,32.795,52.617,-256.000,222.341,-306.426,-327.987,-477.500,437.760,-1898.220
672,48974.886000,55.312,37.439,-254.023,237.985,-292.051,-335.172,-440.500,445.760,-1783.220
673,48974.902000,74.891,35.415,-253.035,236.078,-286.223,-341.052,-389.500,347.760,-1577.220
674,48974.924000,86.639,33.391,-255.012,244.760,-272.759,-341.221,-359.500,98.760,-1386.220
675,48974.946000,92.512,13.154,-256.000,251.618,-271.853,-342.328,-334.500,-284.240,-1149.220
676,48974.967000,78.807,-2.024,-260.942,256.457,-266.093,-342.420,-367.500,-614.240,-947.220
677,48974.984000,53.354,0.000,-268.849,253.445,-270.910,-335.470,-408.500,-840.240,-779.220
678,48975.7000,21.048,9.107,-273.792,260.269,-271.942,-333.621,-369.500,-814.240,-581.220
679,48975.44000,4.405,14.166,-277.745,260.288,-279.684,-330.659,-278.500,-490.240,-343.220
680,48975.73000,6.363,15.178,-282.687,254.355,-274.795,-329.575,-147.500,-46.240,-118.220
681,48975.76000,20.069,11.130,-283.676,255.413,-277.703,-332.544,-81.500,124.760,-6.220
682,48975.96000,32.795,4.047,-274.780,261.318,-275.818,-335.604,23.500,306.760,189.780
683,48975.114000,34.753,7.083,-272.803,258.416,-273.854,-338.508,65.500,284.760,371.780
684,48975.129000,32.795,11.130,-272.803,250.728,-279.582,-343.288,110.500,233.760,537.780
685,48975.149000,25.943,16.190,-268.849,244.805,-277.596,-341.216,144.500,188.760,667.780
686,48975.163000,17.132,15.178,-274.780,241.897,-284.343,-339.188,182.500,140.760,809.780
687,48975.186000,17.132,16.190,-278.734,241.906,-285.311,-339.187,241.500,141.760,934.780
688,48975.208000,23.985,27.320,-274.780,230.201,-294.881,-336.015,287.500,79.760,1038.780
689,48975.228000,18.111,40.474,-273.792,229.250,-299.710,-335.009,319.500,-41.240,1129.780
690,48975.248000,10.279,52.617,-270.826,219.536,-305.424,-335.814,345.500,-41.240,1177.780
691,48975.273000,-0.489,52.617,-266.873,216.532,-309.273,-329.850,406.500,60.760,1315.780
692,48975.293000,-3.426,47.557,-256.988,201.017,-320.738,-331.531,479.500,320.760,1516.780
693,48975.316000,6.363,54.640,-250.069,185.370,-319.627,-332.240,521.500,538.760,1717.780
694,48975.336000,13.216,64.759,-248.093,184.523,-328.322,-335.168,538.500,595.760,1903.780
695,48975.354000,11.258,63.747,-245.127,163.040,-329.091,-336.756,527.500,527.760,2066.780
696,48975.382000,13.216,61.723,-246.116,155.231,-336.762,-333.656,517.500,427.760,2213.780
697,48975.401000,11.258,63.747,-251.058,136.701,-339.494,-335.293,500.500,215.760,2315.780
698,48975.429000,6.363,68.806,-252.046,123.021,-343.240,-334.063,505.500,122.760,2392.780
699,48975.441000,-15.174,80.949,-247.104,105.481,-356.626,-330.783,512.500,-19.240,2418.780
700,48975.463000,-25.943,88.032,-244.139,74.136,-362.151,-325.300,540.500,6.760,2491.780
701,48975.486000,-36.711,83.984,-240.185,66.378,-367.883,-326.140,547.500,57.760,2564.780
702,48975.508000,-27.901,88.032,-243.151,41.856,-368.632,-321.768,542.500,104.760,2604.780
703,48975.523000,-29.859,92.079,-241.174,24.322,-371.371,-324.408,516.500,29.760,2631.780
704,48975.546000,-44.543,93.091,-234.255,-4.097,-374.019,-319.964,489.500,-2.240,2633.780
705,48975.566000,-61.185,91.067,-237.220,-13.839,-374.896,-321.760,485.500,69.760,2636.780
706,48975.583000,-64.122,89.043,-243.151,-42.303,-366.899,-320.281,509.500,224.760,2656.780
707,48975.606000,-75.870,80.949,-241.174,-67.650,-361.823,-327.714,518.500,295.760,2680.780
708,48975.639000,-77.828,77.913,-237.220,-78.467,-357.857,-326.543,508.500,505.760,2680.780
709,48975.642000,-53.354,80.949,-243.151,-102.932,-344.084,-333.017,468.500,630.760,2669.780
710,48975.669000,-21.048,77.913,-238.208,-116.694,-335.252,-333.769,396.500,356.760,2602.780
711,48975.692000,-5.384,77.913,-239.197,-144.205,-332.105,-328.363,313.500,-284.240,2567.780
712,48975.709000,-25.943,87.020,-232.278,-148.179,-334.977,-323.367,304.500,-732.240,2533.780
713,48975.737000,-61.185,94.103,-226.347,-171.863,-327.999,-315.081,315.500,-790.240,2490.780
714,48975.762000,-96.428,91.067,-231.290,-191.503,-323.953,-312.769,386.500,-588.240,2456.780
715,48975.776000,-109.155,79.937,-229.313,-211.204,-318.943,-307.504,425.500,-368.240,2435.780
716,48975.808000,-98.386,77.913,-226.347,-232.855,-307.140,-306.150,416.500,-314.240,2408.780
717,48975.808000,-104.260,71.842,-221.405,-237.870,-301.295,-302.131,350.500,-328.240,2216.780
718,48975.822000,-135.587,67.794,-225.359,-254.594,-287.598,-303.820,313.500,-372.240,1971.780
719,48975.849000,-167.893,56.664,-227.336,-249.763,-284.742,-301.940,307.500,-208.240,1743.780
720,48975.864000,-179.641,40.474,-219.429,-268.435,-275.866,-301.620,235.500,17.760,1414.780
721,48975.886000,-172.788,36.427,-215.475,-278.334,-267.073,-299.486,122.500,120.760,1125.780
722,48975.903000,-162.998,45.534,-215.475,-286.164,-261.194,-302.308,16.500,55.760,874.780
723,48975.926000,-158.103,50.593,-219.429,-284.294,-259.281,-298.405,-68.500,-52.240,630.780
724,48975.951000,-156.145,53.628,-219.429,-289.213,-256.334,-298.322,-109.500,-229.240,366.780
725,48975.973000,-162.998,57.676,-223.382,-291.091,-259.216,-301.238,-114.500,-306.240,245.780
726,48975.996000,-169.851,58.688,-225.359,-294.217,-261.136,-289.367,-123.500,-357.240,12.780
727,48976.16000,-178.662,57.676,-224.371,-296.112,-265.954,-290.313,-120.500,-256.240,-247.220
728,48976.33000,-176.704,51.605,-227.336,-291.193,-266.965,-291.383,-118.500,-76.240,-465.220
729,48976.66000,-159.082,47.557,-223.382,-288.195,-273.763,-291.428,-129.500,102.760,-711.220
730,48976.93000,-145.377,48.569,-219.429,-282.306,-277.687,-290.543,-166.500,156.760,-965.220
731,48976.122000,-134.608,50.593,-222.394,-272.433,-285.515,-291.693,-213.500,124.760,-1195.220
732,48976.124000,-134.608,54.640,-224.371,-261.632,-295.289,-288.919,-255.500,53.760,-1388.220
733,48976.144000,-136.566,61.723,-222.394,-260.549,-299.164,-292.872,-286.500,47.760,-1538.220
734,48976.154000,-124.818,70.830,-236.232,-243.860,-310.927,-290.200,-302.500,83.760,-1585.220
735,48976.181000,-113.071,65.771,-235.243,-235.026,-315.845,-289.366,-283.500,139.760,-1705.220
736,48976.203000,-116.008,56.664,-226.347,-216.285,-324.717,-293.625,-279.500,90.760,-1908.220
737,48976.226000,-112.092,67.794,-230.301,-216.249,-332.458,-291.648,-342.500,40.760,-2041.220
738,48976.243000,-102.302,78.925,-241.174,-184.821,-347.255,-291.202,-372.500,26.760,-2131.220
739,48976.266000,-103.281,72.854,-245.127,-161.222,-358.109,-292.591,-386.500,40.760,-2237.220
740,48976.284000,-104.260,67.794,-241.174,-159.256,-359.094,-292.625,-404.500,91.760,-2334.220
741,48976.304000,-95.449,69.818,-233.266,-129.777,-370.969,-294.117,-407.500,118.760,-2408.220
742,48976.329000,-85.660,77.913,-234.255,-118.978,-376.872,-293.317,-426.500,68.760,-2445.220
743,48976.349000,-71.954,89.043,-241.174,-91.527,-380.990,-294.782,-428.500,44.760,-2470.220
744,48976.382000,-69.996,84.996,-231.290,-82.730,-380.103,-294.939,-419.500,-12.240,-2537.220
745,48976.382000,-78.807,77.913,-222.394,-57.252,-390.011,-292.425,-453.500,-86.240,-2564.220
746,48976.414000,-69.996,76.901,-226.347,-27.801,-393.176,-296.880,-492.500,-34.240,-2528.220
747,48976.429000,-50.417,82.972,-232.278,-6.319,-386.599,-298.252,-502.500,34.760,-2554.220
748,48976.453000,-53.354,80.949,-227.336,14.308,-391.621,-300.580,-520.500,-65.240,-2589.220
749,48976.461000,-55.312,75.889,-229.313,27.055,-394.639,-300.802,-547.500,-104.240,-2480.220
750,48976.488000,-43.564,79.937,-237.220,53.377,-384.238,-301.280,-552.500,-5.240,-2480.220
751,48976.511000,-28.880,82.972,-242.162,66.115,-386.288,-301.503,-558.500,1.760,-2567.220
752,48976.533000,-29.859,71.842,-241.174,93.555,-381.695,-306.916,-579.500,-106.240,-2565.220
753,48976.553000,-28.880,64.759,-246.116,111.132,-377.986,-307.231,-611.500,-179.240,-2545.220
754,48976.573000,-20.069,67.794,-252.046,132.604,-366.570,-310.578,-624.500,-98.240,-2562.220
755,48976.591000,-15.174,67.794,-252.046,155.097,-354.192,-316.897,-598.500,-11.240,-2531.220
756,48976.626000,-9.300,59.700,-249.081,164.768,-347.512,-314.123,-551.500,36.760,-2394.220
757,48976.631000,-0.489,50.593,-243.151,185.365,-336.082,-323.361,-501.500,99.760,-2232.220
758,48976.657000,8.321,44.522,-243.151,197.988,-325.556,-323.596,-467.500,140.760,-2076.220
759,48976.677000,16.153,43.510,-241.174,210.732,-315.023,-330.725,-444.500,108.760,-1897.220
760,48976.694000,23.985,40.474,-243.151,219.528,-310.264,-332.855,-440.500,56.760,-1796.220
761,48976.722000,19.090,33.391,-241.174,241.025,-295.943,-339.159,-428.500,-0.240,-1625.220
762,48976.749000,14.195,27.320,-241.174,247.767,-282.461,-340.279,-430.500,48.760,-1499.220
763,48976.768000,19.090,26.308,-248.093,243.843,-273.715,-344.157,-416.500,178.760,-1376.220
764,48976.782000,34.753,26.308,-254.023,253.616,-263.157,-349.265,-391.500,229.760,-1264.220
765,48976.791000,52.375,18.213,-256.988,260.456,-258.381,-351.360,-367.500,157.760,-1159.220
766,48976.804000,50.417,12.142,-256.988,263.362,-245.826,-356.349,-350.500,35.760,-1037.220
767,48976.837000,41.606,3.036,-259.954,259.465,-245.790,-357.264,-330.500,36.760,-845.220
768,48976.854000,43.564,5.059,-267.861,261.385,-236.130,-360.263,-256.500,144.760,-637.220
769,48976.877000,57.270,3.036,-266.873,265.272,-229.392,-362.308,-219.500,146.760,-536.220
770,48976.897000,62.164,-1.012,-264.896,263.296,-225.504,-363.262,-188.500,47.760,-357.220
771,48976.922000,62.164,3.036,-271.815,261.383,-228.387,-364.210,-173.500,-62.240,-197.220
772,48976.941000,59.228,12.142,-275.768,266.311,-230.366,-365.279,-121.500,-109.240,-38.220
773,48976.961000,54.333,5.059,-276.757,262.362,-230.332,-363.240,-60.500,-94.240,132.780
774,48976.983000,48.459,3.036,-274.780,260.527,-234.179,-368.126,-17.500,-22.240,279.780
775,48977.1000,44.543,9.107,-281.699,254.570,-234.130,-363.098,62.500,91.760,467.780
776,48977.23000,51.396,11.130,-278.734,257.628,-239.958,-367.083,132.500,146.760,648.780
777,48977.41000,51.396,17.202,-270.826,251.706,-241.843,-363.038,173.500,90.760,816.780
778,48977.72000,47.480,22.261,-270.826,246.971,-251.469,-366.881,192.500,56.760,899.780
779,48977.91000,39.648,25.296,-264.896,240.071,-255.281,-361.832,236.500,50.760,1045.780
780,48977.106000,24.964,29.344,-261.931,236.168,-263.956,-357.815,262.500,106.760,1174.780
781,48977.126000,21.048,32.379,-261.931,228.392,-265.817,-359.644,290.500,202.760,1307.780
782,48977.148000,25.943,35.415,-257.977,221.631,-271.558,-361.487,315.500,245.760,1426.780
783,48977.168000,29.859,39.462,-255.012,217.745,-278.296,-359.441,320.500,180.760,1534.780
784,48977.188000,24.964,46.545,-250.069,207.036,-289.810,-356.285,328.500,97.760,1638.780
785,48977.211000,16.153,49.581,-252.046,193.418,-302.263,-354.061,337.500,47.760,1759.780
786,48977.233000,11.258,48.569,-252.046,178.732,-303.098,-352.815,374.500,73.760,1877.780
787,48977.253000,9.300,57.676,-245.127,165.114,-313.616,-351.578,381.500,74.760,1920.780
788,48977.273000,4.405,64.759,-244.139,164.137,-319.415,-348.600,390.500,33.760,2027.780
789,48977.289000,-1.468,64.759,-241.174,141.677,-327.919,-346.224,403.500,13.760,2132.780
790,48977.316000,-11.258,64.759,-237.220,124.049,-333.567,-341.968,401.500,-1.240,2230.780
791,48977.338000,-20.069,63.747,-241.174,103.598,-342.086,-342.580,406.500,30.760,2322.780
792,48977.356000,-23.006,67.794,-240.185,83.095,-352.543,-339.252,402.500,20.760,2339.780
793,48977.378000,-21.048,69.818,-238.208,71.293,-351.472,-336.091,379.500,-119.240,2326.780
794,48977.393000,-29.859,68.806,-236.232,46.859,-363.831,-330.722,371.500,-270.240,2314.780
795,48977.411000,-41.606,66.783,-230.301,41.943,-370.563,-325.705,363.500,-360.240,2326.780
796,48977.432000,-50.417,65.771,-234.255,13.620,-378.045,-324.211,358.500,-382.240,2337.780
797,48977.449000,-60.207,65.771,-242.162,-1.213,-375.985,-316.075,340.500,-442.240,2314.780
798,48977.477000,-68.038,69.818,-242.162,-26.653,-381.560,-312.665,350.500,-463.240,2276.780
799,48977.509000,-70.975,73.866,-244.139,-31.727,-380.558,-302.732,394.500,-397.240,2239.780
800,48977.529000,-67.059,74.877,-246.116,-56.154,-384.206,-302.295,440.500,-288.240,2281.780
801,48977.557000,-69.996,70.830,-237.220,-75.803,-379.193,-299.985,476.500,-189.240,2280.780
802,48977.559000,-75.870,68.806,-237.220,-96.394,-379.976,-296.666,486.500,-123.240,2271.780
803,48977.578000,-69.017,69.818,-232.278,-115.012,-376.905,-296.340,501.500,-56.240,2254.780
804,48977.598000,-46.501,66.783,-227.336,-124.850,-371.011,-296.173,468.500,-127.240,2276.780
805,48977.623000,-43.564,71.842,-231.290,-153.350,-363.017,-292.725,431.500,-277.240,2311.780
806,48977.646000,-69.017,72.854,-223.382,-159.332,-365.874,-284.740,419.500,-677.240,2333.780
807,48977.668000,-98.386,76.901,-216.463,-187.892,-358.851,-277.352,413.500,-809.240,2352.780
808,48977.686000,-112.092,84.996,-220.417,-207.671,-350.941,-269.135,431.500,-765.240,2343.780
809,48977.708000,-113.071,81.960,-217.452,-223.388,-349.834,-265.905,476.500,-778.240,2357.780
810,48977.726000,-150.272,71.842,-205.591,-243.184,-343.862,-255.718,471.500,-833.240,2219.780
811,48977.748000,-185.514,64.759,-207.568,-250.078,-338.963,-255.601,429.500,-666.240,1944.780
812,48977.768000,-196.283,65.771,-212.510,-268.837,-328.156,-251.344,442.500,-329.240,1708.780
813,48977.783000,-189.430,64.759,-205.591,-269.799,-324.275,-254.285,428.500,-67.240,1474.780
814,48977.797000,-193.346,53.628,-195.707,-280.678,-311.600,-254.108,400.500,-3.240,1321.780
815,48977.824000,-196.283,46.545,-192.741,-288.482,-304.753,-258.900,300.500,102.760,999.780
816,48977.844000,-189.430,48.569,-197.683,-290.492,-296.995,-259.858,208.500,195.760,693.780
817,48977.877000,-177.683,54.640,-199.660,-296.382,-293.071,-260.743,144.500,205.760,437.780
818,48977.896000,-176.704,54.640,-199.660,-292.442,-292.137,-262.782,74.500,141.760,191.780
819,48977.923000,-182.577,50.593,-197.683,-287.498,-292.178,-265.823,-15.500,122.760,-78.220
820,48977.932000,-182.577,54.640,-199.660,-292.416,-291.167,-264.753,-85.500,182.760,-317.220
821,48977.954000,-174.746,55.652,-201.637,-289.428,-295.063,-265.786,-159.500,218.760,-547.220
822,48977.979000,-162.998,49.581,-204.602,-287.410,-296.045,-268.773,-247.500,197.760,-805.220
823,48978.2000,-157.124,52.617,-205.591,-280.568,-302.883,-264.949,-288.500,109.760,-941.220
824,48978.20000,-158.103,61.723,-207.568,-264.823,-312.699,-265.216,-354.500,22.760,-1181.220
825,48978.38000,-161.040,66.783,-213.498,-265.878,-315.599,-259.287,-405.500,45.760,-1370.220
826,48978.54000,-156.145,67.794,-219.429,-245.127,-330.293,-263.575,-445.500,146.760,-1518.220
827,48978.77000,-147.335,70.830,-219.429,-247.127,-331.245,-260.585,-471.500,232.760,-1711.220
828,48978.97000,-137.545,75.889,-216.463,-233.226,-345.877,-264.751,-497.500,215.760,-1885.220
829,48978.112000,-130.692,83.984,-221.405,-219.562,-344.068,-264.011,-523.500,179.760,-1996.220
830,48978.131000,-121.881,81.960,-226.347,-200.828,-359.715,-264.324,-557.500,167.760,-2115.220
831,48978.153000,-117.966,77.913,-226.347,-177.177,-372.502,-267.681,-577.500,158.760,-2236.220
832,48978.185000,-115.029,87.020,-227.336,-170.326,-378.372,-264.842,-612.500,139.760,-2284.220
833,48978.199000,-108.176,92.079,-227.336,-145.844,-386.336,-262.312,-624.500,133.760,-2340.220
834,48978.241000,-92.512,90.055,-233.266,-136.899,-388.344,-269.359,-639.500,151.760,-2397.220
835,48978.249000,-86.639,82.972,-234.255,-109.447,-398.269,-267.865,-667.500,108.760,-2509.220
836,48978.258000,-85.660,83.984,-233.266,-92.768,-403.258,-268.154,-681.500,46.760,-2557.220
837,48978.276000,-85.660,88.032,-236.232,-65.292,-406.406,-271.590,-684.500,72.760,-2570.220
838,48978.300000,-75.870,87.020,-239.197,-37.911,-406.656,-271.089,-667.500,164.760,-2565.220
839,48978.322000,-71.954,86.008,-240.185,-31.884,-410.572,-278.083,-628.500,218.760,-2524.220
840,48978.343000,-66.080,84.996,-236.232,0.371,-406.996,-278.657,-610.500,235.760,-2447.220
841,48978.366000,-53.354,81.960,-242.162,20.044,-405.233,-285.899,-580.500,236.760,-2415.220
842,48978.382000,-35.732,82.972,-249.081,43.483,-398.673,-287.306,-555.500,205.760,-2429.220
843,48978.403000,-36.711,75.889,-246.116,51.406,-399.707,-292.367,-566.500,76.760,-2467.220
844,48978.421000,-43.564,66.783,-244.139,82.655,-391.284,-293.914,-560.500,55.760,-2407.220
845,48978.448000,-38.669,64.759,-247.104,94.422,-388.486,-297.079,-545.500,209.760,-2361.220
846,48978.471000,-24.964,61.723,-253.035,117.886,-375.150,-303.416,-513.500,308.760,-2328.220
847,48978.486000,-12.237,55.652,-251.058,137.435,-363.714,-308.698,-460.500,289.760,-2204.220
848,48978.506000,-5.384,43.510,-246.116,155.046,-358.067,-311.969,-432.500,256.760,-2085.220
849,48978.528000,7.342,46.545,-251.058,172.621,-344.678,-317.218,-418.500,249.760,-2054.220
850,48978.546000,14.195,45.534,-253.035,186.327,-338.027,-321.406,-384.500,196.760,-1969.220
851,48978.568000,11.258,35.415,-249.081,193.130,-325.509,-325.479,-341.500,161.760,-1790.220
852,48978.593000,12.237,19.225,-248.093,207.832,-318.866,-330.669,-301.500,232.760,-1579.220
853,48978.629000,19.090,11.130,-253.035,213.629,-301.501,-335.715,-259.500,307.760,-1390.220
854,48978.643000,27.901,14.166,-252.046,226.391,-296.775,-340.868,-206.500,317.760,-1193.220
855,48978.662000,34.753,12.142,-247.104,228.276,-285.182,-342.884,-184.500,247.760,-1016.220
856,48978.672000,39.648,11.130,-250.069,235.124,-279.437,-345.965,-161.500,130.760,-888.220
857,48978.695000,40.627,8.095,-255.012,237.081,-277.519,-346.986,-153.500,41.760,-793.220
858,48978.717000,33.774,3.036,-250.069,240.967,-270.781,-349.032,-153.500,40.760,-740.220
859,48978.739000,34.753,2.024,-253.035,250.751,-268.934,-350.192,-136.500,89.760,-604.220
860,48978.759000,39.648,-1.012,-255.012,253.651,-263.155,-351.234,-123.500,110.760,-453.220
861,48978.772000,44.543,-4.047,-259.954,256.602,-255.438,-356.218,-97.500,96.760,-306.220
862,48978.786000,57.270,-2.024,-256.988,247.822,-260.196,-355.072,-59.500,81.760,-171.220
863,48978.818000,48.459,-5.059,-260.942,249.797,-260.213,-356.092,-44.500,10.760,-15.220
864,48978.836000,46.501,-7.083,-263.907,246.809,-258.253,-354.072,-13.500,29.760,167.780
865,48978.858000,48.459,-3.036,-260.942,249.797,-262.148,-355.105,33.500,123.760,343.780
866,48978.876000,57.270,4.047,-261.931,254.681,-261.226,-355.193,66.500,149.760,479.780
867,48978.893000,54.333,4.047,-262.919,243.001,-265.955,-355.965,74.500,111.760,541.780
868,48978.931000,50.417,5.059,-266.873,237.139,-268.805,-354.873,89.500,27.760,700.780
869,48978.949000,48.459,10.119,-260.942,229.312,-270.669,-353.748,126.500,59.760,843.780
870,48978.968000,41.606,15.178,-258.965,220.628,-278.325,-356.539,155.500,87.760,989.780
871,48978.997000,37.690,16.190,-261.931,226.474,-283.220,-352.699,178.500,94.760,1150.780
872,48978.999000,41.606,24.285,-259.954,210.915,-289.847,-354.385,213.500,171.760,1303.780
873,48979.18000,44.543,32.379,-256.000,199.226,-293.609,-355.158,238.500,162.760,1437.780
874,48979.41000,34.753,33.391,-255.012,185.557,-306.066,-349.979,252.500,83.760,1595.780
875,48979.58000,25.943,38.451,-256.000,183.582,-304.113,-349.947,274.500,62.760,1738.780
876,48979.79000,23.985,45.534,-253.035,167.037,-315.572,-348.656,289.500,99.760,1801.780
877,48979.103000,21.048,49.581,-257.977,149.479,-325.088,-346.365,304.500,106.760,1929.780
878,48979.116000,13.216,48.569,-258.965,141.661,-329.855,-344.253,318.500,9.760,2060.780
879,48979.143000,1.468,57.676,-255.012,125.055,-342.285,-339.022,347.500,-71.240,2149.780
880,48979.164000,-6.363,65.771,-253.035,105.494,-343.075,-338.675,374.500,-75.240,2189.780
881,48979.183000,-15.174,69.818,-253.035,84.040,-356.426,-335.326,399.500,-92.240,2243.780
882,48979.211000,-23.985,63.747,-250.069,77.174,-358.300,-333.234,425.500,-141.240,2310.780
883,48979.226000,-29.859,66.783,-248.093,55.657,-362.943,-330.879,442.500,-137.240,2378.780
884,48979.243000,-28.880,76.901,-245.127,26.313,-371.387,-326.412,457.500,-124.240,2454.780
885,48979.266000,-35.732,78.925,-241.174,13.567,-372.241,-324.216,492.500,-167.240,2509.780
886,48979.286000,-47.480,77.913,-240.185,-9.976,-378.806,-316.901,526.500,-269.240,2615.780
887,48979.331000,-57.270,77.913,-237.220,-26.654,-377.689,-314.638,556.500,-260.240,2631.780
888,48979.360000,-57.270,78.925,-237.220,-56.051,-378.392,-311.164,569.500,-234.240,2665.780
889,48979.360000,-55.312,81.960,-240.185,-62.969,-380.270,-306.117,585.500,-298.240,2671.780
890,48979.374000,-67.059,82.972,-229.313,-87.500,-381.987,-300.759,593.500,-391.240,2642.780
891,48979.397000,-88.597,80.949,-226.347,-105.184,-374.088,-300.455,597.500,-336.240,2578.780
892,48979.414000,-96.428,72.854,-223.382,-129.743,-369.031,-297.073,602.500,-119.240,2518.780
893,48979.438000,-93.491,66.783,-223.382,-154.217,-358.162,-301.575,586.500,-55.240,2475.780
894,48979.461000,-86.639,64.759,-222.394,-164.089,-354.207,-298.452,560.500,-71.240,2424.780
895,48979.481000,-93.491,64.759,-219.429,-185.749,-341.436,-297.099,528.500,-134.240,2356.780
896,48979.499000,-111.113,63.747,-218.440,-192.625,-338.471,-296.981,494.500,-113.240,2247.780
897,48979.522000,-121.881,55.652,-219.429,-206.379,-326.735,-299.705,466.500,-20.240,2128.780
898,48979.542000,-118.945,42.498,-226.347,-224.089,-317.869,-298.417,407.500,-5.240,1990.780
899,48979.562000,-120.902,35.415,-224.371,-241.747,-310.936,-299.098,325.500,-114.240,1714.780
900,48979.582000,-140.482,36.427,-222.394,-249.673,-300.223,-298.970,246.500,-184.240,1425.780
901,48979.597000,-162.019,41.486,-219.429,-249.751,-297.324,-296.018,188.500,-108.240,1187.780
902,48979.631000,-171.809,43.510,-217.452,-258.621,-288.537,-296.856,161.500,-29.240,1083.780
903,48979.644000,-169.851,41.486,-216.463,-268.389,-286.511,-298.655,105.500,101.760,858.780
904,48979.667000,-166.914,38.451,-219.429,-272.312,-283.572,-299.573,35.500,106.760,614.780
905,48979.684000,-165.935,42.498,-224.371,-271.439,-275.844,-297.629,-20.500,2.760,351.780
906,48979.712000,-174.746,46.545,-220.417,-272.313,-279.700,-301.547,-69.500,-66.240,80.780
907,48979.726000,-184.535,49.581,-219.429,-271.491,-277.782,-293.688,-112.500,-28.240,-180.220
908,48979.746000,-182.577,53.628,-222.394,-270.346,-284.557,-299.607,-142.500,49.760,-404.220
909,48979.757000,-169.851,52.617,-221.405,-260.577,-290.454,-295.835,-187.500,57.760,-657.220
910,48979.783000,-161.040,48.569,-219.429,-266.466,-288.466,-295.733,-244.500,10.760,-935.220
911,48979.803000,-155.166,48.569,-222.394,-258.584,-298.214,-293.892,-271.500,-3.240,-1057.220
912,48979.823000,-150.272,55.652,-225.359,-247.784,-304.117,-293.092,-321.500,-5.240,-1278.220
913,48979.846000,-142.440,61.723,-228.324,-235.945,-312.929,-294.276,-358.500,1.760,-1477.220
914,48979.863000,-137.545,62.735,-232.278,-229.015,-323.634,-293.401,-380.500,5.760,-1657.220
915,48979.886000,-131.671,61.723,-238.208,-218.241,-330.506,-290.630,-393.500,8.760,-1829.220
916,48979.908000,-125.797,63.747,-238.208,-197.612,-343.272,-289.012,-399.500,-0.240,-2017.220
917,48979.931000,-123.839,66.783,-238.208,-192.613,-351.053,-291.060,-405.500,20.760,-2150.220
918,48979.951000,-122.860,74.877,-238.208,-169.075,-360.943,-289.496,-404.500,97.760,-2230.220
919,48979.976000,-111.113,72.854,-239.197,-153.314,-364.951,-293.708,-422.500,155.760,-2325.220
920,48979.996000,-94.470,68.806,-235.243,-126.929,-369.065,-290.232,-441.500,131.760,-2386.220
921,48980.18000,-87.618,72.854,-231.290,-119.956,-378.799,-292.313,-466.500,29.760,-2487.220
922,48980.33000,-86.639,74.877,-227.336,-91.508,-386.796,-292.807,-504.500,16.760,-2553.220
923,48980.61000,-79.786,73.866,-229.313,-66.967,-389.918,-296.191,-534.500,65.760,-2571.220
924,48980.83000,-69.017,70.830,-235.243,-49.355,-390.078,-296.502,-557.500,59.760,-2612.220
925,48980.111000,-58.249,69.818,-238.208,-24.831,-395.137,-297.914,-581.500,-37.240,-2653.220
926,48980.111000,-45.522,66.783,-236.232,-10.153,-395.270,-298.174,-622.500,-192.240,-2689.220
927,48980.143000,-35.732,71.842,-244.139,25.003,-395.594,-294.858,-648.500,-376.240,-2785.220
928,48980.161000,-48.459,65.771,-241.174,32.806,-398.571,-292.039,-666.500,-389.240,-2754.220
929,48980.181000,-59.228,64.759,-241.174,61.103,-392.058,-291.563,-660.500,-288.240,-2707.220
930,48980.198000,-30.837,65.771,-244.139,82.655,-389.348,-294.901,-616.500,-39.240,-2618.220
931,48980.219000,-18.111,58.688,-238.208,107.081,-383.765,-296.324,-580.500,74.760,-2531.220
932,48980.241000,-12.237,48.569,-238.208,135.507,-374.342,-304.713,-569.500,40.760,-2416.220
933,48980.263000,-0.489,40.474,-238.208,140.364,-370.516,-304.804,-561.500,-7.240,-2286.220
934,48980.282000,17.132,46.545,-244.139,160.849,-360.060,-307.147,-555.500,-48.240,-2174.220
935,48980.306000,23.985,51.605,-248.093,169.644,-351.429,-311.251,-565.500,-153.240,-2144.220
936,48980.324000,16.153,40.474,-248.093,195.992,-343.930,-311.726,-569.500,-304.240,-2011.220
937,48980.342000,2.447,19.225,-244.139,197.888,-341.048,-309.794,-532.500,-320.240,-1798.220
938,48980.358000,-4.405,2.024,-251.058,210.606,-331.485,-314.952,-518.500,-171.240,-1667.220
939,48980.383000,10.279,4.047,-258.965,222.319,-319.010,-320.096,-470.500,80.760,-1383.220
940,48980.401000,23.985,18.213,-259.954,222.309,-316.107,-321.084,-393.500,147.760,-1150.220
941,48980.422000,18.111,25.296,-258.965,231.123,-309.411,-325.186,-349.500,-61.240,-999.220
942,48980.454000,2.447,20.237,-260.942,237.920,-307.541,-323.339,-305.500,-199.240,-886.220
943,48980.473000,-2.447,22.261,-267.861,246.698,-298.911,-326.458,-270.500,-74.240,-821.220
944,48980.492000,13.216,23.273,-268.849,247.650,-297.954,-325.492,-216.500,132.760,-785.220
945,48980.506000,25.943,5.059,-263.907,246.740,-292.134,-332.374,-184.500,181.760,-675.220
946,48980.522000,37.690,-5.059,-263.907,251.578,-284.438,-333.453,-172.500,173.760,-564.220
947,48980.543000,45.522,-6.071,-258.965,257.457,-281.587,-335.529,-132.500,133.760,-489.220
948,48980.566000,43.564,-9.107,-249.081,251.551,-279.600,-334.442,-78.500,105.760,-268.220
949,48980.583000,39.648,-10.119,-259.954,257.482,-278.682,-338.486,-60.500,80.760,-1.220
950,48980.606000,42.585,-10.119,-264.896,250.607,-279.589,-336.394,-5.500,71.760,266.780
951,48980.631000,42.585,-3.036,-261.931,246.780,-281.484,-340.262,35.500,24.760,450.780
952,48980.653000,35.732,5.059,-267.861,237.932,-286.246,-335.178,51.500,-74.240,572.780
953,48980.671000,27.901,11.130,-269.838,243.838,-288.233,-336.265,92.500,-78.240,675.780
954,48980.692000,23.006,15.178,-261.931,237.977,-294.955,-333.200,142.500,48.760,753.780
955,48980.713000,23.985,14.166,-264.896,229.223,-294.872,-335.998,153.500,138.760,799.780
956,48980.730000,23.006,7.083,-272.803,221.405,-299.640,-333.885,176.500,292.760,952.780
957,48980.743000,38.669,12.142,-271.815,213.673,-302.467,-337.683,222.500,441.760,1144.780
958,48980.773000,50.417,31.368,-263.907,208.833,-306.291,-338.577,257.500,454.760,1292.780
959,48980.793000,44.543,42.498,-266.873,194.182,-307.124,-339.302,279.500,273.760,1453.780
960,48980.816000,29.859,34.403,-269.838,192.314,-316.780,-339.257,336.500,123.760,1679.780
961,48980.833000,23.006,41.486,-263.907,179.638,-323.437,-338.041,390.500,148.760,1822.780
962,48980.861000,19.090,56.664,-256.988,158.201,-336.787,-335.677,415.500,134.760,1969.780
963,48980.888000,13.216,59.700,-255.012,144.424,-335.699,-331.497,446.500,46.760,2147.780
964,48980.907000,2.447,54.640,-253.035,122.053,-350.006,-331.084,464.500,8.760,2217.780
965,48980.926000,-1.468,58.688,-247.104,113.213,-353.799,-326.986,486.500,-25.240,2306.780
966,48980.941000,-17.132,64.759,-240.185,93.689,-364.265,-323.674,497.500,-108.240,2388.780
967,48980.961000,-26.922,70.830,-240.185,77.991,-368.965,-318.469,518.500,-167.240,2529.780
968,48980.986000,-34.753,77.913,-236.232,57.497,-380.390,-315.140,550.500,-173.240,2615.780
969,48981.14000,-43.564,80.949,-233.266,28.091,-382.062,-310.680,560.500,-192.240,2638.780
970,48981.28000,-53.354,77.913,-234.255,7.518,-384.780,-307.359,568.500,-230.240,2664.780
971,48981.43000,-57.270,76.901,-238.208,-16.025,-391.345,-300.044,590.500,-254.240,2683.780
972,48981.66000,-59.228,78.925,-235.243,-26.815,-390.281,-298.870,599.500,-242.240,2679.780
973,48981.89000,-65.101,80.949,-229.313,-54.186,-390.998,-299.369,593.500,-222.240,2653.780
974,48981.103000,-75.870,72.854,-227.336,-72.890,-389.867,-293.133,574.500,-223.240,2581.780
975,48981.126000,-82.723,67.794,-234.255,-101.293,-386.707,-292.634,575.500,-200.240,2536.780
976,48981.146000,-70.975,65.771,-233.266,-111.184,-378.881,-290.499,543.500,-152.240,2453.780
977,48981.163000,-62.164,66.783,-234.255,-131.776,-375.793,-289.154,473.500,-242.240,2332.780
978,48981.186000,-79.786,68.806,-230.301,-157.374,-369.763,-282.801,453.500,-393.240,2220.780
979,48981.203000,-103.281,67.794,-227.336,-168.172,-369.667,-280.641,476.500,-299.240,2183.780
980,48981.221000,-107.197,65.771,-224.371,-184.939,-358.876,-278.388,466.500,-95.240,2115.780
981,48981.243000,-95.449,65.771,-225.359,-199.670,-351.003,-279.122,423.500,-41.240,2036.780
982,48981.277000,-90.554,66.783,-223.382,-221.347,-340.168,-275.797,403.500,-94.240,2002.780
983,48981.294000,-100.344,69.818,-227.336,-223.305,-334.343,-278.723,392.500,-227.240,1955.780
984,48981.313000,-119.924,64.759,-221.405,-238.072,-324.536,-278.473,395.500,-200.240,1866.780
985,48981.346000,-138.524,60.711,-219.429,-252.864,-313.762,-277.240,376.500,-55.240,1742.780
986,48981.364000,-147.335,62.735,-224.371,-264.616,-308.816,-279.006,394.500,78.760,1623.780
987,48981.383000,-148.314,61.723,-226.347,-274.491,-295.182,-280.816,367.500,99.760,1488.780
988,48981.387000,-155.166,52.617,-221.405,-275.428,-288.395,-286.715,315.500,105.760,1246.780
989,48981.406000,-169.851,46.545,-217.452,-282.462,-275.760,-282.667,252.500,130.760,1006.780
990,48981.433000,-172.788,49.581,-220.417,-289.234,-276.662,-286.484,229.500,132.760,793.780
991,48981.451000,-170.830,54.640,-216.463,-288.265,-271.832,-288.476,172.500,97.760,692.780
992,48981.469000,-176.704,51.605,-213.498,-297.046,-268.846,-291.277,93.500,55.760,447.780
993,48981.491000,-182.577,47.557,-212.510,-298.095,-264.970,-289.294,28.500,79.760,160.780
994,48981.518000,-183.556,47.557,-214.486,-288.370,-267.966,-284.541,-39.500,91.760,-154.220
995,48981.536000,-178.662,47.557,-213.498,-289.253,-266.984,-290.433,-126.500,43.760,-463.220
996,48981.558000,-172.788,43.510,-212.510,-287.269,-273.775,-288.491,-209.500,-2.240,-772.220
997,48981.578000,-169.851,46.545,-212.510,-283.328,-276.713,-288.557,-267.500,15.760,-1054.220
998,48981.606000,-165.935,54.640,-215.475,-272.492,-288.422,-286.766,-314.500,95.760,-1287.220
999,48981.634000,-142.440,63.747,-216.463,-267.582,-290.401,-286.851,-338.500,135.760,-1386.220
1000,48981.646000,-124.818,63.747,-221.405,-260.644,-300.137,-286.962,-369.500,196.760,-1554.220
