Sample, Time, ACCX, ACCY, ACCZ, MAGX, MAGY, MAGZ, GYRX, GYRY, GYRZ
0,49126.151000,-23.006,-37.439,-242.162,108.480,-337.291,-344.641,-0.500,0.760,9.780
1,49126.175000,-23.006,-37.439,-241.174,104.592,-338.222,-345.556,-0.500,2.760,11.780
2,49126.191000,-21.048,-37.439,-242.162,114.343,-340.249,-342.773,0.500,-1.240,11.780
3,49126.234000,-23.006,-37.439,-242.162,109.407,-339.239,-340.718,-3.500,-29.240,6.780
4,49126.247000,-25.943,-38.451,-239.197,105.563,-341.135,-343.601,-4.500,-21.240,5.780
5,49126.261000,-25.943,-38.451,-239.197,110.404,-343.118,-339.746,0.500,17.760,9.780
6,49126.281000,-19.090,-37.439,-239.197,110.482,-344.082,-343.684,-3.500,28.760,13.780
7,49126.302000,-20.069,-36.427,-240.185,105.520,-340.170,-341.632,-10.500,-2.240,9.780
8,49126.325000,-23.985,-36.427,-238.208,103.597,-340.150,-343.567,-24.500,-41.240,-5.220
9,49126.345000,-25.943,-34.403,-238.208,111.452,-345.059,-342.716,-27.500,-28.240,-6.220
10,49126.365000,-22.027,-37.439,-241.174,110.430,-344.085,-340.730,-24.500,-4.240,-0.220
11,49126.382000,-21.048,-36.427,-242.162,104.594,-344.029,-342.596,-30.500,-21.240,-0.220
12,49126.400000,-24.964,-35.415,-243.151,110.386,-341.183,-339.748,-30.500,-21.240,-0.220
13,49126.419000,-25.943,-35.415,-244.139,106.542,-343.080,-342.631,-19.500,5.760,7.780
14,49126.432000,-23.006,-36.427,-243.151,108.411,-337.295,-340.702,-10.500,17.760,11.780
15,49126.462000,-23.006,-36.427,-241.174,111.452,-343.123,-343.703,-11.500,10.760,7.780
16,49126.471000,-25.943,-35.415,-240.185,101.615,-341.101,-341.562,-11.500,-5.240,7.780
17,49126.499000,-25.943,-35.415,-242.162,109.460,-343.107,-341.698,-12.500,-1.240,2.780
18,49126.521000,-23.006,-32.379,-242.162,103.537,-341.121,-339.627,-17.500,-10.240,-9.220
19,49126.544000,-23.985,-34.403,-240.185,102.592,-339.174,-342.566,-22.500,-27.240,-22.220
20,49126.561000,-23.985,-36.427,-243.151,106.560,-345.014,-342.629,-25.500,-27.240,-20.220
21,49126.584000,-24.964,-35.415,-243.151,107.512,-342.121,-342.650,-21.500,-0.240,-12.220
22,49126.606000,-24.964,-34.403,-240.185,103.554,-339.184,-341.599,-16.500,18.760,0.780
23,49126.635000,-23.985,-33.391,-242.162,102.601,-340.142,-342.565,-12.500,16.760,-0.220
24,49126.666000,-23.985,-33.391,-242.162,104.611,-344.028,-343.580,-10.500,10.760,-9.220
25,49126.694000,-23.006,-34.403,-242.162,106.516,-342.113,-341.647,-13.500,-4.240,-12.220
26,49126.694000,-23.006,-34.403,-242.162,108.543,-344.063,-344.634,-14.500,-13.240,-13.220
27,49126.714000,-23.985,-34.403,-241.174,101.632,-343.036,-341.560,-16.500,-9.240,-12.220
28,49126.732000,-25.943,-33.391,-241.174,104.567,-341.127,-342.599,-15.500,6.760,-10.220
29,49126.755000,-23.985,-34.403,-242.162,105.556,-345.975,-340.642,-20.500,14.760,-16.220
30,49126.777000,-23.006,-34.403,-239.197,101.684,-341.097,-345.501,-19.500,21.760,-19.220
31,49126.803000,-23.006,-36.427,-239.197,100.644,-340.124,-342.530,-22.500,20.760,-17.220
32,49126.825000,-21.048,-36.427,-240.185,103.597,-340.150,-343.567,-24.500,9.760,-23.220
33,49126.837000,-21.048,-35.415,-242.162,106.585,-342.109,-345.587,-26.500,0.760,-26.220
34,49126.855000,-22.027,-35.415,-243.151,105.572,-342.102,-343.600,-28.500,-15.240,-21.220
35,49126.877000,-23.006,-36.427,-242.162,100.696,-340.121,-345.485,-24.500,1.760,-16.220
36,49126.900000,-21.048,-34.403,-242.162,105.589,-342.101,-344.584,-23.500,13.760,-16.220
37,49126.915000,-23.006,-33.391,-240.185,106.541,-339.208,-344.605,-27.500,18.760,-15.220
38,49126.937000,-21.048,-32.379,-239.197,101.658,-340.131,-344.517,-24.500,25.760,-6.220
39,49126.957000,-19.090,-34.403,-239.197,103.658,-341.114,-346.520,-32.500,-2.240,-4.220
40,49126.975000,-22.027,-35.415,-239.197,106.533,-340.176,-343.619,-41.500,-10.240,-7.220
41,49126.997000,-23.006,-32.379,-240.185,105.615,-341.132,-346.555,-42.500,5.760,-0.220
42,49127.20000,-23.006,-33.391,-240.185,98.722,-338.169,-345.452,-45.500,8.760,-5.220
43,49127.42000,-22.027,-32.379,-240.185,106.593,-341.141,-346.572,-47.500,7.760,-10.220
44,49127.75000,-23.006,-32.379,-240.185,102.618,-336.269,-345.523,-48.500,21.760,-11.220
45,49127.89000,-22.027,-31.368,-240.185,98.748,-339.135,-346.436,-43.500,44.760,-0.220
46,49127.131000,-19.090,-32.379,-238.208,97.690,-334.291,-344.454,-50.500,38.760,5.780
47,49127.134000,-21.048,-33.391,-239.197,104.584,-337.255,-345.557,-59.500,33.760,7.780
48,49127.152000,-21.048,-30.356,-239.197,97.751,-337.191,-346.420,-63.500,29.760,1.780
49,49127.166000,-20.069,-30.356,-244.139,97.769,-337.190,-347.405,-72.500,-0.240,-5.220
50,49127.186000,-23.985,-28.332,-245.127,98.765,-337.198,-348.407,-76.500,-8.240,-10.220
51,49127.204000,-23.985,-27.320,-246.116,101.700,-337.225,-348.459,-71.500,10.760,-8.220
52,49127.226000,-21.048,-27.320,-248.093,91.915,-335.200,-349.273,-55.500,40.760,5.780
53,49127.249000,-22.027,-27.320,-249.081,93.880,-334.250,-350.293,-45.500,31.760,3.780
54,49127.277000,-23.006,-25.296,-249.081,90.954,-337.126,-349.254,-39.500,13.760,-4.220
55,49127.292000,-23.006,-25.296,-249.081,98.756,-336.231,-348.408,-27.500,15.760,-15.220
56,49127.315000,-21.048,-25.296,-250.069,93.898,-336.184,-350.291,-22.500,8.760,-22.220
57,49127.332000,-23.985,-23.273,-249.081,94.859,-336.194,-349.324,-13.500,9.760,-31.220
58,49127.350000,-22.027,-24.285,-247.104,95.854,-334.266,-351.313,-3.500,18.760,-30.220
59,49127.370000,-18.111,-24.285,-246.116,98.755,-332.359,-350.382,2.500,23.760,-25.220
60,49127.387000,-16.153,-25.296,-247.104,96.876,-333.305,-354.285,9.500,23.760,-26.220
61,49127.405000,-18.111,-26.308,-245.127,96.816,-336.212,-349.358,10.500,6.760,-24.220
62,49127.423000,-18.111,-27.320,-245.127,98.851,-337.193,-353.331,14.500,-3.240,-19.220
63,49127.447000,-19.090,-27.320,-246.116,101.742,-332.383,-353.388,20.500,-1.240,-18.220
64,49127.475000,-21.048,-27.320,-243.151,95.828,-333.300,-350.329,23.500,13.760,-16.220
65,49127.492000,-16.153,-27.320,-240.185,94.858,-334.258,-350.311,26.500,21.760,-14.220
66,49127.515000,-15.174,-27.320,-240.185,97.785,-331.382,-351.350,16.500,0.760,-17.220
67,49127.532000,201.178,132.553,-218.440,89.960,-344.861,-344.305,-241.500,-1202.240,899.780
68,49127.570000,-46.501,-212.490,-214.486,82.951,-363.198,-325.455,-137.500,-2595.240,1056.780
69,49127.584000,-205.094,-112.316,-256.000,84.714,-381.617,-304.791,-520.500,-1932.240,-387.220
70,49127.611000,-183.556,32.379,-273.792,89.638,-371.981,-311.780,-140.500,217.760,-527.220
71,49127.620000,-92.512,9.107,-251.058,92.743,-358.447,-328.587,288.500,1907.760,-46.220
72,49127.642000,10.279,-39.462,-245.127,92.909,-331.337,-352.248,457.500,2206.760,86.780
73,49127.665000,76.849,-33.391,-236.232,92.034,-329.386,-359.126,-410.500,1089.760,-80.220
74,49127.681000,42.585,33.391,-253.035,93.983,-330.372,-358.175,-108.500,-133.240,-203.220
75,49127.695000,-9.300,-12.142,-260.942,89.082,-331.296,-357.103,-37.500,-578.240,10.780
76,49127.717000,-33.774,-34.403,-256.000,98.826,-340.098,-350.374,-31.500,-469.240,-33.220
77,49127.744000,-35.732,-18.213,-248.093,89.985,-340.020,-348.249,-27.500,-381.240,-49.220
78,49127.757000,-43.564,-18.213,-244.139,88.962,-337.110,-347.249,6.500,-163.240,-13.220
79,49127.781000,-34.753,-22.261,-244.139,94.843,-340.067,-346.366,36.500,125.760,11.780
80,49127.804000,-20.069,-23.273,-239.197,92.981,-341.012,-351.254,44.500,281.760,33.780
81,49127.839000,-7.342,-25.296,-237.220,95.880,-335.233,-352.296,27.500,214.760,38.780
82,49127.844000,-4.405,-29.344,-237.220,87.047,-330.315,-353.130,0.500,14.760,16.780
83,49127.865000,-9.300,-27.320,-241.174,88.961,-331.303,-350.210,-22.500,-122.240,-7.220
84,49127.887000,-19.090,-23.273,-243.151,92.911,-337.144,-349.288,-37.500,-168.240,-12.220
85,49127.910000,-26.922,-23.273,-249.081,91.872,-336.170,-346.318,-24.500,-77.240,1.780
86,49127.934000,-25.943,-21.249,-250.069,88.018,-337.099,-349.202,-14.500,-15.240,2.780
87,49127.961000,-23.006,-21.249,-251.058,87.057,-337.089,-350.169,4.500,54.760,9.780
88,49127.965000,-17.132,-22.261,-252.046,91.976,-340.036,-350.253,24.500,50.760,25.780
89,49127.989000,206.073,273.202,-188.788,86.079,-339.016,-349.165,-409.500,98.760,63.780
90,49128.11000,-2.447,-111.304,-212.510,75.216,-356.346,-334.186,-478.500,-1550.240,401.780
91,49128.34000,-164.956,-122.435,-258.965,80.074,-356.393,-332.303,-229.500,-77.240,-409.220
92,49128.51000,-119.924,20.237,-267.861,88.990,-343.884,-345.273,202.500,1290.760,-86.220
93,49128.66000,-28.880,-6.071,-245.127,87.210,-327.402,-363.966,266.500,1549.760,173.780
94,49128.83000,57.270,-39.462,-234.255,89.158,-322.581,-365.975,65.500,613.760,66.780
95,49128.110000,71.954,-3.036,-233.266,80.388,-330.242,-363.842,-68.500,-88.240,34.780
96,49128.132000,2.447,-6.071,-254.023,89.012,-329.364,-354.151,-155.500,-889.240,-93.220
97,49128.152000,-48.459,-19.225,-265.884,80.174,-338.965,-347.092,-84.500,-742.240,-58.220
98,49128.175000,-55.312,-13.154,-263.907,82.123,-341.887,-345.154,-9.500,-261.240,-22.220
99,49128.192000,-40.627,-11.130,-257.977,85.093,-343.847,-346.189,41.500,43.760,14.780
100,49128.225000,-31.816,-16.190,-253.035,84.114,-339.967,-348.145,68.500,218.760,37.780
101,49128.244000,-19.090,-17.202,-250.069,84.112,-334.160,-351.105,74.500,224.760,26.780
102,49128.271000,-16.153,-17.202,-249.081,87.109,-337.087,-353.123,81.500,132.760,29.780
103,49128.275000,-10.279,-21.249,-246.116,87.144,-339.020,-354.106,79.500,72.760,18.780
104,49128.300000,-10.279,-22.261,-242.162,89.040,-336.138,-352.174,73.500,-56.240,11.780
105,49128.321000,-16.153,-22.261,-239.197,92.020,-341.002,-352.221,60.500,-133.240,3.780
106,49128.339000,-24.964,-23.273,-241.174,88.045,-338.066,-350.186,47.500,-106.240,-1.220
107,49128.356000,-31.816,-23.273,-241.174,88.062,-338.065,-351.170,51.500,0.760,6.780
108,49128.381000,-23.006,-22.261,-244.139,89.057,-336.137,-353.159,60.500,61.760,15.780
109,49128.395000,-15.174,-23.273,-241.174,90.971,-337.125,-350.238,58.500,19.760,20.780
110,49128.414000,-16.153,-25.296,-240.185,90.063,-340.984,-352.187,49.500,-39.240,18.780
111,49128.439000,-32.795,-32.379,-230.301,88.011,-341.939,-346.243,252.500,-277.240,330.780
112,49128.461000,67.059,-68.806,-152.216,82.083,-356.408,-335.292,-496.500,-1706.240,275.780
113,49128.484000,-133.629,-205.407,-233.266,76.135,-357.327,-330.263,-429.500,-925.240,-382.220
114,49128.501000,-153.208,-14.166,-262.919,80.134,-353.486,-337.230,-50.500,538.760,-337.220
115,49128.520000,-25.943,-27.320,-237.220,81.195,-336.068,-351.051,188.500,1544.760,99.780
116,49128.541000,32.795,-41.486,-243.151,85.234,-319.642,-366.893,184.500,1472.760,88.780
117,49128.574000,93.491,-1.012,-242.162,78.420,-321.513,-367.755,95.500,598.760,119.780
118,49128.587000,17.132,-1.012,-256.988,78.327,-330.230,-357.898,-148.500,-731.240,-116.220
119,49128.606000,-48.459,-17.202,-272.803,83.212,-335.114,-355.026,-148.500,-1091.240,-118.220
120,49128.629000,-64.122,-15.178,-269.838,80.209,-342.835,-347.088,-54.500,-628.240,-57.220
121,49128.653000,-54.333,-11.130,-263.907,84.098,-343.840,-345.187,-9.500,-370.240,-41.220
122,49128.670000,-41.606,-16.190,-256.988,83.084,-343.833,-343.200,68.500,72.760,-4.220
123,49128.690000,-21.048,-16.190,-252.046,86.062,-340.953,-347.194,104.500,336.760,16.780
124,49128.712000,-10.279,-18.213,-247.104,87.101,-339.991,-351.151,115.500,338.760,19.780
125,49128.727000,-7.342,-22.261,-244.139,83.186,-336.084,-353.055,112.500,178.760,7.780
126,49128.741000,-9.300,-23.273,-239.197,87.022,-333.220,-350.173,96.500,1.760,-1.220
127,49128.771000,-14.195,-22.261,-238.208,89.066,-337.104,-353.158,75.500,-127.240,-12.220
128,49128.797000,-23.985,-23.273,-240.185,82.104,-336.081,-347.129,58.500,-161.240,-16.220
129,49128.811000,-27.901,-23.273,-242.162,85.110,-341.911,-348.160,56.500,-80.240,-11.220
130,49128.846000,-24.964,-23.273,-240.185,86.053,-338.050,-348.181,60.500,-24.240,-5.220
131,49128.875000,-18.111,-24.285,-242.162,88.011,-340.004,-347.229,65.500,47.760,4.780
132,49128.884000,-14.195,-27.320,-243.151,91.881,-339.074,-345.330,66.500,31.760,16.780
133,49128.887000,-15.174,-27.320,-241.174,92.947,-342.949,-348.298,57.500,-30.240,17.780
134,49128.910000,-172.788,23.273,-174.950,88.070,-335.161,-353.143,55.500,-69.240,17.780
135,49128.924000,39.648,-45.534,-190.764,87.942,-341.943,-342.304,301.500,-1372.240,727.780
136,49128.951000,-133.629,-203.383,-241.174,83.036,-357.386,-333.339,-242.500,-841.240,-33.220
137,49128.977000,-126.776,-26.308,-259.954,90.819,-352.620,-333.482,-88.500,464.760,-328.220
138,49128.995000,-68.038,13.154,-249.081,86.167,-342.883,-352.116,59.500,1044.760,43.780
139,49129.12000,12.237,-31.368,-234.255,83.185,-332.212,-355.029,186.500,1469.760,161.780
140,49129.35000,90.554,-23.273,-237.220,84.291,-323.503,-366.872,83.500,861.760,133.780
141,49129.64000,45.522,-8.095,-240.185,87.098,-328.376,-357.071,-105.500,-457.240,46.780
142,49129.86000,-26.922,-19.225,-252.046,85.134,-335.134,-353.091,-161.500,-1057.240,-107.220
143,49129.104000,-62.164,-24.285,-258.965,90.903,-342.936,-343.339,-78.500,-739.240,-39.220
144,49129.129000,-57.270,-16.190,-256.000,88.012,-347.747,-343.282,-14.500,-250.240,-19.220
145,49129.142000,-50.417,-20.237,-251.058,87.934,-344.847,-340.331,30.500,114.760,16.780
146,49129.159000,-32.795,-22.261,-251.058,86.080,-340.952,-348.178,55.500,327.760,34.780
147,49129.180000,-13.216,-21.249,-246.116,81.256,-340.904,-352.031,56.500,323.760,31.780
148,49129.206000,-11.258,-23.273,-242.162,85.101,-339.007,-349.148,46.500,166.760,5.780
149,49129.227000,-14.195,-26.308,-241.174,86.079,-339.016,-349.165,33.500,-5.240,-10.220
150,49129.243000,-17.132,-26.308,-241.174,86.045,-339.018,-347.196,27.500,-95.240,-5.220
151,49129.264000,-23.006,-23.273,-240.185,87.093,-342.895,-349.179,18.500,-124.240,-6.220
152,49129.286000,-30.837,-26.308,-238.208,86.011,-340.956,-344.239,15.500,-67.240,-2.220
153,49129.306000,-28.880,-27.320,-240.185,84.098,-343.840,-345.187,19.500,45.760,6.780
154,49129.325000,-20.069,-26.308,-241.174,82.140,-339.950,-347.125,16.500,73.760,7.780
155,49129.357000,343.128,303.557,-214.486,89.058,-338.073,-352.172,564.500,615.760,621.780
156,49129.369000,-2.447,-158.862,-199.660,80.009,-369.947,-321.457,-758.500,-2497.240,704.780
157,49129.387000,-222.715,-113.328,-260.942,80.944,-370.926,-318.519,-549.500,-1066.240,-542.220
158,49129.406000,-186.493,42.498,-287.629,80.976,-361.246,-325.422,44.500,1089.760,-316.220
159,49129.424000,-98.386,-3.036,-266.873,79.280,-333.144,-354.958,437.500,2520.760,177.780
160,49129.449000,133.629,-29.344,-220.417,77.365,-326.348,-360.839,162.500,1527.760,381.780
161,49129.471000,77.828,-5.059,-240.185,80.353,-330.244,-361.872,-138.500,-236.240,-164.220
162,49129.494000,8.321,-7.083,-258.965,80.258,-331.217,-355.962,-86.500,-899.240,-9.220
163,49129.511000,-44.543,-21.249,-266.873,80.200,-341.867,-347.089,-6.500,-696.240,-76.220
164,49129.531000,-51.396,-17.202,-260.942,81.163,-345.749,-344.148,23.500,-523.240,-58.220
165,49129.552000,-47.480,-15.178,-251.058,85.033,-344.819,-342.249,58.500,-258.240,-17.220
166,49129.570000,-49.438,-19.225,-248.093,86.160,-349.659,-348.170,78.500,54.760,31.780
167,49129.590000,-34.753,-18.213,-245.127,82.123,-341.887,-345.154,90.500,277.760,21.780
168,49129.617000,-25.943,-18.213,-242.162,86.140,-338.045,-353.105,93.500,297.760,14.780
169,49129.632000,-12.237,-22.261,-237.220,85.083,-337.073,-349.150,77.500,147.760,-8.220
170,49129.650000,-9.300,-24.285,-237.220,90.990,-340.996,-349.250,58.500,-40.240,-30.220
171,49129.677000,-14.195,-25.296,-236.232,79.160,-335.086,-347.078,36.500,-152.240,-48.220
172,49129.695000,-19.090,-24.285,-237.220,83.101,-339.960,-346.158,11.500,-174.240,-47.220
173,49129.709000,-29.859,-24.285,-239.197,86.011,-342.892,-343.253,7.500,-135.240,-41.220
174,49129.736000,-32.795,-25.296,-240.185,86.089,-341.920,-348.177,16.500,3.760,-32.220
175,49129.756000,-29.859,-22.261,-239.197,90.002,-340.019,-349.233,30.500,119.760,-19.220
176,49129.781000,-21.048,-23.273,-237.220,89.041,-341.945,-349.214,25.500,111.760,-20.220
177,49129.799000,-18.111,-26.308,-238.208,87.084,-339.992,-350.166,6.500,24.760,-29.220
178,49129.836000,-24.964,-26.308,-236.232,89.032,-339.042,-350.202,-11.500,-23.240,-48.220
179,49129.855000,-35.732,-25.296,-234.255,88.027,-338.067,-349.201,-18.500,31.760,-47.220
180,49129.874000,-45.522,-28.332,-236.232,89.993,-339.052,-349.234,-28.500,136.760,-63.220
181,49129.876000,-50.417,-29.344,-234.255,88.988,-336.141,-349.220,-37.500,180.760,-100.220
182,49129.894000,-57.270,-28.332,-239.197,91.022,-331.315,-356.153,-45.500,264.760,-116.220
183,49129.908000,-52.375,-22.261,-249.081,84.215,-328.346,-359.974,-45.500,317.760,-186.220
184,49129.940000,-35.732,-19.225,-255.012,93.991,-327.468,-360.148,-43.500,187.760,-267.220
185,49129.959000,-30.837,-26.308,-262.919,96.926,-325.559,-361.186,-56.500,-29.240,-368.220
186,49129.976000,-47.480,-26.308,-276.757,99.843,-323.651,-361.240,-27.500,-48.240,-421.220
187,49130.4000,-53.354,-21.249,-289.606,105.706,-324.673,-360.358,63.500,152.760,-438.220
188,49130.21000,-43.564,-18.213,-302.456,104.735,-319.824,-363.300,162.500,242.760,-464.220
189,49130.50000,-8.321,-16.190,-326.178,114.493,-315.075,-364.463,280.500,180.760,-533.220
190,49130.72000,2.447,-12.142,-328.154,123.264,-313.221,-363.636,347.500,111.760,-572.220
191,49130.90000,10.279,-12.142,-324.201,134.945,-312.363,-360.890,476.500,-44.240,-625.220
192,49130.113000,10.279,-20.237,-318.270,144.687,-315.358,-357.121,596.500,-194.240,-625.220
193,49130.128000,11.258,-26.308,-311.351,163.123,-313.600,-349.574,712.500,-245.240,-578.220
194,49130.149000,21.048,-29.344,-297.514,163.157,-311.663,-352.530,843.500,-183.240,-504.220
195,49130.175000,28.880,-35.415,-282.687,180.580,-313.769,-341.022,950.500,-153.240,-449.220
196,49130.190000,32.795,-44.522,-269.838,197.067,-314.897,-332.452,1011.500,-176.240,-374.220
197,49130.206000,36.711,-50.593,-258.965,214.628,-313.124,-330.796,1061.500,-156.240,-291.220
198,49130.230000,41.606,-48.569,-252.046,228.102,-315.197,-317.250,1106.500,-136.240,-195.220
199,49130.253000,37.690,-45.534,-247.104,228.050,-315.200,-314.296,1120.500,-104.240,-152.220
200,49130.285000,33.774,-54.640,-238.208,243.534,-319.224,-302.751,1152.500,-91.240,-45.220
201,49130.304000,34.753,-62.735,-228.324,250.297,-317.355,-298.935,1180.500,13.760,59.780
202,49130.323000,35.732,-72.854,-215.475,267.710,-316.558,-288.416,1207.500,76.760,156.780
203,49130.335000,36.711,-87.020,-201.637,270.595,-322.395,-282.553,1203.500,120.760,236.780
204,49130.357000,36.711,-100.174,-192.741,280.198,-321.527,-272.879,1169.500,162.760,321.780
205,49130.375000,35.732,-110.292,-183.846,291.812,-326.480,-263.235,1112.500,202.760,408.780
206,49130.395000,36.711,-115.352,-175.938,284.832,-323.522,-257.208,1052.500,252.760,490.780
207,49130.416000,39.648,-116.364,-164.077,288.713,-331.302,-251.361,1017.500,281.760,532.780
208,49130.437000,36.711,-123.447,-157.158,294.523,-328.455,-249.498,936.500,316.760,626.780
209,49130.462000,36.711,-125.470,-147.274,294.542,-336.198,-246.536,842.500,340.760,725.780
210,49130.475000,40.627,-129.518,-139.367,285.667,-339.993,-240.468,752.500,411.760,818.780
211,49130.497000,36.711,-135.589,-128.494,282.794,-346.738,-240.409,645.500,437.760,932.780
212,49130.525000,33.774,-141.660,-125.529,275.963,-350.546,-239.299,511.500,433.760,1041.780
213,49130.539000,23.985,-140.648,-120.587,265.252,-354.317,-240.090,393.500,442.760,1156.780
214,49130.561000,17.132,-134.577,-115.645,264.406,-364.948,-242.031,278.500,499.760,1267.780
215,49130.581000,9.300,-135.589,-106.749,254.708,-366.790,-245.795,146.500,536.760,1370.780
216,49130.601000,-2.447,-139.636,-106.749,233.329,-369.489,-252.305,65.500,541.760,1411.780
217,49130.624000,-13.216,-135.589,-112.680,216.792,-376.108,-253.974,-86.500,555.760,1477.780
218,49130.641000,-18.111,-126.482,-113.668,195.473,-377.836,-264.423,-218.500,629.760,1530.780
219,49130.664000,-26.922,-118.387,-114.656,187.776,-382.597,-269.204,-355.500,670.760,1567.780
220,49130.686000,-33.774,-118.387,-124.541,161.531,-384.283,-277.598,-521.500,654.760,1540.780
221,49130.689000,-37.690,-116.364,-135.413,131.396,-383.028,-288.879,-658.500,645.760,1518.780
222,49130.716000,-42.585,-101.186,-137.390,120.780,-383.890,-296.566,-779.500,690.760,1413.780
223,49130.738000,-50.417,-92.079,-131.459,94.489,-376.867,-306.938,-903.500,821.760,1360.780
224,49130.764000,-53.354,-95.115,-159.135,81.863,-373.842,-313.609,-976.500,846.760,1364.780
225,49130.786000,-51.396,-97.138,-174.950,50.740,-369.675,-325.862,-1049.500,970.760,1341.780
226,49130.809000,-35.732,-70.830,-164.077,40.096,-361.828,-336.511,-1115.500,1103.760,1207.780
227,49130.829000,-27.901,-56.664,-165.066,13.786,-347.063,-349.846,-1256.500,1037.760,1119.780
228,49130.846000,-27.901,-59.700,-188.788,-6.696,-339.129,-357.368,-1348.500,736.760,1100.780
229,49130.874000,-23.985,-49.581,-189.776,-30.206,-336.013,-356.956,-1396.500,510.760,1069.780
230,49130.895000,-41.606,-24.285,-164.077,-61.494,-327.016,-362.320,-1462.500,466.760,1019.780
231,49130.901000,-49.438,-3.036,-172.973,-81.170,-319.101,-360.012,-1601.500,452.760,1040.780
232,49130.929000,-44.543,5.059,-199.660,-113.531,-311.068,-359.449,-1624.500,445.760,1021.780
233,49130.950000,-49.438,15.178,-189.776,-125.248,-308.056,-362.198,-1650.500,438.760,978.780
234,49130.970000,-64.122,35.415,-159.135,-154.796,-294.249,-357.754,-1719.500,629.760,872.780
235,49130.993000,-56.291,56.664,-183.846,-174.421,-284.395,-359.387,-1887.500,876.760,842.780
236,49131.13000,-37.690,63.747,-219.429,-201.095,-265.779,-354.015,-1907.500,847.760,751.780
237,49131.19000,-38.669,69.818,-195.707,-228.748,-251.026,-346.651,-1945.500,612.760,576.780
238,49131.38000,-45.522,84.996,-161.112,-242.594,-248.006,-339.519,-2144.500,595.760,564.780
239,49131.70000,-8.321,128.506,-217.452,-274.273,-234.191,-325.192,-2221.500,366.760,586.780
240,49131.88000,-1.468,141.660,-259.954,-291.107,-231.148,-315.053,-2100.500,-277.240,499.780
241,49131.117000,-42.585,130.530,-204.602,-318.947,-228.020,-290.938,-2116.500,-459.240,543.780
242,49131.146000,-78.807,149.755,-145.297,-326.109,-224.103,-275.064,-2278.500,-201.240,666.780
243,49131.165000,-36.711,213.502,-172.973,-350.002,-211.330,-257.921,-2437.500,339.760,866.780
244,49131.179000,6.363,252.964,-233.266,-370.103,-196.664,-234.940,-2252.500,183.760,827.780
245,49131.199000,-6.363,228.680,-179.892,-390.107,-192.638,-211.948,-2313.500,-214.240,730.780
246,49131.219000,-46.501,224.632,-138.378,-411.150,-185.704,-186.973,-2485.500,-43.240,451.780
247,49131.241000,-31.816,270.166,-190.764,-423.188,-179.807,-172.984,-2406.500,359.760,98.780
248,49131.259000,-14.195,283.320,-237.220,-434.436,-175.864,-147.194,-2200.500,404.760,-329.220
249,49131.275000,-39.648,262.071,-207.568,-431.691,-177.838,-135.427,-2183.500,725.760,-543.220
250,49131.301000,-70.975,276.237,-171.985,-439.874,-176.819,-115.594,-2185.500,1128.760,-614.220
251,49131.324000,-44.543,319.747,-186.811,-441.978,-175.841,-107.682,-2036.500,1994.760,-668.220
252,49131.341000,-12.237,360.221,-217.452,-447.978,-176.763,-99.700,-1673.500,2254.760,-872.220
253,49131.350000,-6.363,347.067,-191.753,-442.219,-179.726,-91.922,-1391.500,2164.760,-1106.220
254,49131.369000,-10.279,333.913,-169.019,-446.036,-188.396,-92.829,-1192.500,2158.760,-1371.220
255,49131.401000,-2.447,343.020,-164.077,-436.162,-198.159,-92.992,-983.500,2127.760,-1574.220
256,49131.410000,6.363,354.150,-200.649,-431.094,-205.937,-98.980,-621.500,1877.760,-1791.220
257,49131.438000,-5.384,346.055,-224.371,-416.136,-223.477,-106.115,-343.500,1694.760,-2043.220
258,49131.456000,-35.732,344.032,-205.591,-417.857,-232.157,-114.934,-249.500,1757.760,-2232.220
259,49131.484000,-38.669,354.150,-209.544,-402.759,-251.625,-128.961,-66.500,1962.760,-2316.220
260,49131.505000,-16.153,366.293,-236.232,-381.879,-263.408,-142.115,207.500,1984.760,-2540.220
261,49131.528000,-12.237,377.423,-243.151,-360.772,-284.857,-163.136,496.500,1860.760,-2725.220
262,49131.545000,-20.069,362.245,-229.313,-332.799,-300.561,-188.224,690.500,1842.760,-2716.220
263,49131.566000,9.300,362.245,-256.000,-318.708,-311.310,-205.197,960.500,1678.760,-2764.220
264,49131.587000,20.069,370.340,-267.861,-278.033,-325.194,-230.512,1193.500,1462.760,-2812.220
265,49131.604000,12.237,363.257,-260.942,-261.051,-333.069,-246.554,1441.500,1532.760,-2691.220
266,49131.631000,20.069,351.115,-251.058,-216.490,-336.343,-275.888,1740.500,1640.760,-2552.220
267,49131.664000,22.027,339.984,-239.197,-189.706,-340.435,-295.061,1857.500,1665.760,-2482.220
268,49131.673000,30.837,321.771,-229.313,-139.286,-333.116,-329.434,2089.500,1759.760,-2278.220
269,49131.686000,52.375,296.474,-225.359,-90.998,-319.982,-356.883,2288.500,1862.760,-1983.220
270,49131.700000,68.038,266.119,-219.429,-73.249,-310.455,-370.007,2437.500,1754.760,-1720.220
271,49131.728000,64.122,250.941,-216.463,-26.069,-294.416,-391.534,2504.500,1497.760,-1509.220
272,49131.750000,55.312,234.751,-208.556,0.452,-286.907,-401.856,2548.500,1362.760,-1300.220
273,49131.785000,48.459,218.561,-203.614,47.397,-266.042,-412.556,2580.500,1440.760,-1046.220
274,49131.800000,53.354,194.277,-200.649,79.667,-256.658,-417.075,2639.500,1546.760,-807.220
275,49131.809000,66.080,166.957,-190.764,121.632,-229.945,-425.725,2657.500,1579.760,-555.220
276,49131.839000,72.933,141.660,-191.753,141.130,-220.448,-427.065,2638.500,1524.760,-443.220
277,49131.854000,69.017,120.411,-202.625,180.931,-197.601,-421.890,2597.500,1338.760,-227.220
278,49131.876000,64.122,98.150,-207.568,229.585,-187.414,-412.918,2551.500,1146.760,-19.220
279,49131.900000,62.164,82.972,-205.591,243.135,-182.707,-407.256,2503.500,989.760,141.780
280,49131.919000,65.101,64.759,-183.846,277.942,-167.565,-392.139,2457.500,967.760,314.780
281,49131.941000,54.333,46.545,-170.996,288.549,-165.736,-384.453,2375.500,954.760,501.780
282,49131.959000,49.438,21.249,-165.066,318.465,-158.292,-365.302,2306.500,1053.760,645.780
283,49131.979000,60.207,5.059,-166.054,331.903,-152.624,-353.733,2226.500,1136.760,796.780
284,49132.16000,77.828,-20.237,-156.170,359.941,-151.933,-335.525,2186.500,1151.760,863.780
285,49132.30000,97.407,-40.474,-155.181,378.170,-154.058,-314.187,2027.500,1043.760,945.780
286,49132.50000,103.281,-50.593,-158.147,389.766,-157.077,-304.544,1868.500,879.760,1014.780
287,49132.64000,93.491,-62.735,-160.124,404.168,-164.969,-285.101,1753.500,746.760,1112.780
288,49132.81000,90.554,-75.889,-152.216,402.082,-165.926,-277.187,1675.500,754.760,1225.780
289,49132.99000,96.428,-81.960,-130.471,409.688,-181.496,-256.630,1581.500,810.760,1407.780
290,49132.124000,95.449,-87.020,-119.598,416.453,-187.371,-248.867,1456.500,714.760,1574.780
291,49132.141000,84.681,-97.138,-111.691,419.306,-204.825,-235.115,1340.500,569.760,1717.780
292,49132.166000,74.891,-109.281,-96.865,411.429,-216.371,-226.102,1208.500,530.760,1850.780
293,49132.180000,60.207,-118.387,-80.062,404.577,-240.507,-213.154,1121.500,501.760,1907.780
294,49132.203000,40.627,-123.447,-85.992,395.812,-265.590,-202.141,950.500,530.760,2018.780
295,49132.225000,21.048,-132.553,-79.073,386.151,-277.109,-202.941,817.500,692.760,2125.780
296,49132.255000,14.195,-139.636,-80.062,369.730,-300.175,-202.623,659.500,889.760,2213.780
297,49132.259000,17.132,-144.696,-72.154,363.030,-308.815,-206.432,472.500,1022.760,2303.780
298,49132.282000,13.216,-146.719,-80.062,338.894,-330.837,-212.871,285.500,947.760,2382.780
299,49132.302000,2.447,-149.755,-82.039,319.378,-338.399,-211.532,103.500,764.760,2358.780
300,49132.323000,-4.405,-148.743,-84.015,289.326,-355.529,-217.872,-86.500,524.760,2289.780
301,49132.349000,-14.195,-140.648,-92.911,516.670,-380.804,-228.756,-156.500,410.760,2265.780
302,49132.371000,-33.774,-136.601,-90.934,252.600,-384.203,-228.017,-273.500,299.760,2228.780
303,49132.389000,-63.143,-135.589,-88.958,212.763,-399.309,-235.170,-381.500,389.760,2138.780
304,49132.406000,-60.207,-130.530,-88.958,196.267,-399.150,-242.754,-501.500,625.760,2046.780
305,49132.428000,-54.333,-120.411,-98.842,161.320,-406.557,-253.941,-615.500,688.760,1982.780
306,49132.449000,-72.933,-122.435,-107.737,146.807,-407.382,-262.543,-705.500,704.760,1965.780
307,49132.466000,-87.618,-122.435,-100.819,108.836,-405.088,-273.688,-841.500,992.760,1830.780
308,49132.507000,-77.828,-109.281,-85.992,99.284,-404.018,-287.302,-1036.500,1249.760,1680.780
309,49132.526000,-75.870,-89.043,-91.923,67.207,-391.130,-305.454,-1206.500,1279.760,1587.780
310,49132.535000,-75.870,-88.032,-116.633,30.256,-382.068,-322.531,-1305.500,1233.760,1578.780
311,49132.549000,-49.438,-83.984,-136.402,6.805,-374.109,-328.032,-1459.500,1072.760,1494.780
312,49132.570000,-55.312,-62.735,-117.622,-26.328,-364.120,-340.256,-1638.500,812.760,1284.780
313,49132.592000,-88.597,-33.391,-124.541,-42.972,-361.065,-340.949,-1833.500,640.760,1180.780
314,49132.615000,-78.807,-26.308,-153.205,-81.179,-352.010,-342.253,-1976.500,586.760,1221.780
315,49132.635000,-52.375,-20.237,-156.170,-92.003,-349.012,-340.096,-2124.500,323.760,1049.780
316,49132.655000,-58.249,13.154,-144.309,-135.294,-336.051,-332.454,-2309.500,-23.240,907.780
317,49132.683000,-96.428,57.676,-132.448,-154.976,-334.911,-326.200,-2440.500,-35.240,926.780
318,49132.693000,-100.344,89.043,-193.730,-191.433,-327.821,-314.735,-2444.500,-2.240,993.780
319,49132.720000,-80.765,76.901,-211.521,-227.007,-317.841,-299.350,-2375.500,5.760,978.780
320,49132.748000,-100.344,83.984,-172.973,-240.846,-313.853,-293.203,-2398.500,-52.240,731.780
321,49132.766000,-116.987,120.411,-170.008,-268.644,-302.012,-275.990,-2482.500,262.760,657.780
322,49132.780000,-93.491,147.731,-229.313,-289.393,-295.061,-267.755,-2462.500,486.760,678.780
323,49132.806000,-69.996,146.719,-253.035,-315.227,-282.269,-251.562,-2352.500,370.760,623.780
324,49132.819000,-82.723,159.874,-200.649,-324.302,-279.300,-237.622,-2392.500,501.760,586.780
325,49132.844000,-108.176,191.241,-142.332,-356.017,-259.680,-224.286,-2513.500,1063.760,615.780
326,49132.866000,-62.164,236.775,-197.683,-377.029,-239.193,-208.187,-2375.500,1135.760,452.780
327,49132.888000,-25.943,229.692,-233.266,-379.167,-238.218,-198.306,-2328.500,924.760,220.780
328,49132.910000,-31.816,221.597,-181.869,-396.253,-234.220,-174.381,-2423.500,461.760,-79.220
329,49132.930000,-62.164,254.988,-144.309,-407.303,-229.299,-160.409,-2550.500,667.760,-161.220
330,49132.951000,-61.185,308.617,-182.857,-420.423,-221.463,-141.482,-2371.500,1118.760,-239.220
331,49132.971000,-44.543,309.628,-242.162,-420.605,-218.569,-132.622,-2088.500,1198.760,-491.220
332,49132.980000,-40.627,291.415,-224.371,-420.874,-217.617,-117.851,-2033.500,1161.760,-763.220
333,49133.3000,-70.975,306.593,-179.892,-426.891,-220.475,-107.897,-1962.500,1654.760,-952.220
334,49133.17000,-78.807,339.984,-180.880,-431.765,-226.237,-105.835,-1699.500,2297.760,-1011.220
335,49133.41000,-51.396,343.020,-213.498,-424.967,-228.238,-102.015,-1548.500,2489.760,-1214.220
336,49133.83000,-27.901,339.984,-223.382,-425.789,-230.156,-109.874,-1257.500,2488.760,-1349.220
337,49133.110000,-23.006,334.925,-210.533,-413.855,-237.995,-116.967,-1036.500,2319.760,-1598.220
338,49133.124000,-17.132,335.937,-213.498,-404.960,-247.749,-117.113,-831.500,2046.760,-1811.220
339,49133.126000,-14.195,338.972,-230.301,-393.881,-263.316,-127.136,-611.500,1735.760,-2101.220
340,49133.153000,-26.922,348.079,-229.313,-388.822,-272.062,-132.137,-402.500,1636.760,-2364.220
341,49133.168000,-33.774,339.984,-229.313,-368.858,-290.608,-145.267,-239.500,1818.760,-2438.220
342,49133.195000,2.447,339.984,-240.185,-345.846,-308.207,-165.342,-49.500,1805.760,-2558.220
343,49133.204000,2.447,350.103,-242.162,-325.962,-321.917,-176.507,129.500,1503.760,-2721.220
344,49133.231000,-23.985,330.877,-225.359,-302.059,-335.658,-193.649,247.500,1378.760,-2768.220
345,49133.249000,-14.195,327.842,-249.081,-290.065,-342.526,-204.683,407.500,1381.760,-2655.220
346,49133.269000,-6.363,327.842,-261.931,-250.429,-355.437,-227.027,670.500,1411.760,-2617.220
347,49133.289000,-12.237,320.759,-249.081,-235.517,-358.461,-239.100,902.500,1379.760,-2592.220
348,49133.311000,-3.426,313.676,-260.942,-197.848,-364.579,-264.371,1103.500,1431.760,-2410.220
349,49133.344000,7.342,298.498,-253.035,-171.966,-365.753,-289.439,1364.500,1421.760,-2301.220
350,49133.359000,8.321,286.356,-248.093,-128.714,-365.166,-302.018,1544.500,1290.760,-2168.220
351,49133.381000,-6.363,274.213,-255.012,-86.304,-354.882,-327.392,1756.500,1328.760,-1966.220
352,49133.401000,-24.964,259.036,-259.954,-68.597,-352.133,-334.600,1867.500,1418.760,-1655.220
353,49133.424000,-13.216,233.739,-246.116,-18.326,-334.176,-366.028,2118.500,1777.760,-1504.220
354,49133.441000,18.111,214.514,-231.290,1.257,-318.867,-375.253,2304.500,2061.760,-1219.220
355,49133.462000,43.564,195.289,-219.429,41.464,-293.093,-394.699,2421.500,2039.760,-992.220
356,49133.480000,55.312,181.123,-222.394,64.001,-283.617,-402.000,2468.500,1713.760,-837.220
357,49133.501000,46.501,161.897,-224.371,116.738,-259.906,-409.852,2511.500,1358.760,-792.220
358,49133.519000,38.669,144.696,-225.359,157.745,-244.798,-413.548,2500.500,1201.760,-712.220
359,49133.546000,40.627,121.423,-215.475,175.138,-232.388,-407.964,2504.500,1175.760,-600.220
360,49133.560000,46.501,101.186,-206.579,215.936,-213.420,-401.817,2458.500,1138.760,-417.220
361,49133.587000,47.480,80.949,-201.637,236.283,-204.907,-395.296,2439.500,1121.760,-330.220
362,49133.603000,49.438,65.771,-196.695,274.163,-187.848,-389.095,2388.500,1063.760,-158.220
363,49133.625000,53.354,46.545,-192.741,281.687,-185.032,-373.480,2333.500,1027.760,22.780
364,49133.658000,52.375,25.296,-177.915,318.538,-171.838,-362.334,2259.500,983.760,175.780
365,49133.658000,47.480,10.119,-170.008,339.813,-169.145,-349.915,2148.500,933.760,276.780
366,49133.690000,53.354,-9.107,-168.031,359.017,-161.600,-333.528,2051.500,927.760,432.780
367,49133.713000,56.291,-33.391,-163.089,380.162,-157.945,-314.218,1947.500,904.760,552.780
368,49133.731000,66.080,-50.593,-162.100,390.710,-159.023,-301.605,1830.500,879.760,674.780
369,49133.749000,68.038,-60.711,-161.112,408.046,-161.135,-285.174,1731.500,856.760,797.780
370,49133.769000,64.122,-72.854,-150.239,409.849,-165.033,-274.372,1693.500,837.760,829.780
371,49133.787000,60.207,-86.008,-150.239,419.375,-169.008,-257.800,1582.500,851.760,931.780
372,49133.803000,80.765,-100.174,-152.216,428.026,-171.033,-248.106,1499.500,867.760,1074.780
373,49133.824000,100.344,-108.269,-145.297,433.709,-180.776,-232.444,1395.500,687.760,1204.780
374,49133.850000,79.786,-114.340,-140.355,432.519,-197.233,-211.730,1259.500,306.760,1279.780
375,49133.873000,51.396,-121.423,-137.390,428.582,-209.782,-203.770,1160.500,125.760,1342.780
376,49133.895000,37.690,-126.482,-128.494,426.596,-231.060,-190.912,1088.500,191.760,1391.780
377,49133.919000,32.795,-130.530,-120.587,425.559,-237.829,-183.995,1015.500,327.760,1467.780
378,49133.939000,23.985,-140.648,-116.633,420.628,-258.113,-171.086,979.500,400.760,1501.780
379,49133.961000,12.237,-148.743,-107.737,420.665,-265.854,-169.109,882.500,582.760,1573.780
380,49133.999000,12.237,-154.814,-98.842,403.144,-286.983,-162.867,754.500,753.760,1620.780
381,49134.8000,20.069,-159.874,-105.761,403.233,-296.657,-162.858,622.500,722.760,1644.780
382,49134.23000,19.090,-167.968,-107.737,380.809,-312.902,-158.504,529.500,591.760,1655.780
383,49134.40000,5.384,-167.968,-101.807,362.334,-325.309,-158.163,436.500,495.760,1632.780
384,49134.55000,-15.174,-167.968,-94.888,361.531,-336.905,-162.073,345.500,534.760,1597.780
385,49134.77000,-12.237,-176.063,-100.819,341.178,-354.130,-163.661,255.500,599.760,1615.780
386,49134.95000,-7.342,-180.111,-102.795,331.498,-359.842,-166.437,172.500,575.760,1637.780
387,49134.118000,-19.090,-176.063,-101.807,308.243,-377.038,-169.943,126.500,558.760,1666.780
388,49134.140000,-26.922,-167.968,-97.853,299.576,-380.822,-175.692,7.500,657.760,1724.780
389,49134.165000,-4.405,-165.945,-97.853,269.514,-391.178,-184.992,-135.500,681.760,1721.780
390,49134.185000,-7.342,-159.874,-108.726,245.324,-405.458,-192.423,-251.500,413.760,1673.780
391,49134.200000,-35.732,-151.779,-104.772,235.635,-408.268,-196.186,-312.500,431.760,1731.780
392,49134.217000,-67.059,-146.719,-95.876,207.615,-414.765,-212.419,-423.500,853.760,1751.780
393,49134.248000,-39.648,-149.755,-112.680,185.327,-419.388,-221.864,-568.500,1073.760,1842.780
394,49134.263000,-11.258,-144.696,-134.425,155.306,-422.966,-237.080,-670.500,752.760,1833.780
395,49134.285000,-30.837,-123.447,-118.610,141.685,-423.805,-240.775,-714.500,602.760,1820.780
396,49134.305000,-52.375,-114.340,-97.853,106.685,-425.408,-251.968,-850.500,527.760,1803.780
397,49134.331000,-45.522,-111.304,-114.656,89.142,-427.179,-254.609,-1038.500,342.760,1886.780
398,49134.334000,-46.501,-95.115,-129.483,53.995,-429.758,-256.937,-1104.500,-51.240,1857.780
399,49134.363000,-79.786,-70.830,-105.761,13.921,-432.295,-257.210,-1173.500,-98.240,1883.780
400,49134.394000,-108.176,-51.605,-112.680,-8.629,-427.253,-256.816,-1288.500,186.760,1999.780
401,49134.421000,-107.197,-62.735,-129.483,-47.718,-423.023,-261.052,-1407.500,308.760,1937.780
402,49134.430000,-90.554,-55.652,-134.425,-62.343,-422.886,-263.747,-1520.500,186.760,1745.780
403,49134.444000,-109.155,-16.190,-117.622,-96.688,-413.869,-262.165,-1584.500,320.760,1673.780
404,49134.466000,-127.755,3.036,-129.483,-116.398,-405.956,-257.888,-1637.500,462.760,1725.780
405,49134.491000,-114.050,-3.036,-176.927,-165.353,-390.994,-262.946,-1745.500,598.760,1795.780
406,49134.510000,-73.912,-9.107,-191.753,-190.051,-380.138,-254.646,-1846.500,241.760,1605.780
407,49134.524000,-80.765,33.391,-169.019,-216.672,-371.198,-247.295,-1878.500,-125.240,1387.780
408,49134.546000,-135.587,69.818,-155.181,-246.324,-357.397,-236.942,-1875.500,113.760,1401.780
409,49134.569000,-171.809,82.972,-189.776,-259.114,-355.350,-233.764,-1801.500,749.760,1432.780
410,49134.586000,-137.545,69.818,-192.741,-286.804,-327.048,-231.339,-1801.500,1143.760,1280.780
411,49134.606000,-105.239,79.937,-157.158,-309.365,-315.231,-233.907,-1949.500,1280.760,1044.780
412,49134.626000,-89.576,115.352,-150.239,-332.283,-290.852,-222.701,-2044.500,1359.760,991.780
413,49134.640000,-67.059,144.696,-184.834,-338.268,-282.094,-220.636,-2172.500,1310.760,946.780
414,49134.659000,-44.543,157.850,-224.371,-363.107,-263.503,-208.405,-2160.500,874.760,778.780
415,49134.691000,-49.438,171.004,-190.764,-385.201,-246.885,-184.407,-2239.500,592.760,690.780
416,49134.714000,-78.807,204.395,-143.320,-396.182,-238.088,-176.347,-2388.500,801.760,654.780
417,49134.731000,-45.522,251.953,-234.255,-413.348,-223.448,-153.418,-2294.500,930.760,535.780
418,49134.755000,-52.375,240.822,-216.463,-423.394,-217.566,-141.434,-2146.500,566.760,248.780
419,49134.776000,-83.702,258.024,-152.216,-432.687,-209.771,-117.652,-2190.500,506.760,101.780
420,49134.794000,-87.618,314.688,-154.193,-431.908,-206.887,-107.824,-2279.500,1041.760,83.780
421,49134.816000,-69.017,319.747,-203.614,-442.059,-195.204,-92.891,-2162.500,1315.760,57.780
422,49134.836000,-61.185,292.427,-205.591,-453.110,-190.283,-78.919,-1864.500,1538.760,-52.220
423,49134.855000,-70.975,308.617,-172.973,-448.391,-188.401,-70.145,-1798.500,1552.760,-312.220
424,49134.893000,-79.786,330.877,-146.286,-453.456,-188.366,-60.211,-1754.500,1887.760,-608.220
425,49134.906000,-51.396,334.925,-163.089,-450.494,-189.359,-61.247,-1614.500,2391.760,-772.220
426,49134.924000,-20.069,336.949,-174.950,-449.531,-197.112,-56.332,-1395.500,2501.760,-1044.220
427,49134.941000,-13.216,344.032,-157.158,-448.430,-202.922,-60.283,-1260.500,2238.760,-1375.220
428,49134.961000,-29.859,351.115,-181.869,-436.589,-217.542,-58.506,-1105.500,1848.760,-1579.220
429,49134.970000,-40.627,344.032,-204.602,-436.544,-224.314,-57.515,-915.500,1681.760,-1745.220
430,49134.989000,-52.375,347.067,-203.614,-417.766,-244.799,-57.823,-844.500,1429.760,-1914.220
431,49135.16000,-74.891,359.210,-207.568,-410.503,-272.907,-66.779,-703.500,1335.760,-2241.220
432,49135.35000,-83.702,370.340,-216.463,-399.572,-285.578,-69.910,-537.500,1431.760,-2487.220
433,49135.57000,-69.017,378.435,-220.417,-372.731,-310.960,-81.185,-344.500,1610.760,-2686.220
434,49135.75000,-60.207,375.399,-220.417,-363.593,-324.572,-93.144,-106.500,1737.760,-2903.220
435,49135.98000,-64.122,368.316,-212.510,-331.642,-352.890,-115.334,113.500,1877.760,-3039.220
436,49135.120000,-46.501,369.328,-221.405,-312.746,-359.818,-129.443,355.500,2011.760,-3057.220
437,49135.143000,-39.648,366.293,-228.324,-272.858,-379.489,-162.612,660.500,1995.760,-3122.220
438,49135.181000,-30.837,348.079,-222.394,-247.769,-395.163,-190.602,781.500,1969.760,-3151.220
439,49135.200000,-21.048,335.937,-236.232,-203.468,-398.452,-205.165,986.500,1852.760,-3105.220
440,49135.211000,-18.111,316.711,-246.116,-149.095,-404.717,-234.669,1215.500,1643.760,-3128.220
441,49135.233000,-15.174,308.617,-253.035,-123.385,-409.773,-247.915,1368.500,1344.760,-3216.220
442,49135.251000,-26.922,304.569,-252.046,-63.326,-407.391,-271.623,1534.500,1128.760,-3147.220
443,49135.274000,-38.669,293.439,-239.197,-35.799,-404.729,-280.973,1701.500,1253.760,-2877.220
444,49135.283000,-35.732,274.213,-236.232,18.248,-390.687,-302.620,1893.500,1601.760,-2576.220
445,49135.314000,-24.964,251.953,-233.266,41.815,-379.281,-313.879,2086.500,1953.760,-2214.220
446,49135.330000,-10.279,229.692,-227.336,89.911,-356.479,-335.430,2242.500,2149.760,-1776.220
447,49135.350000,11.258,200.348,-222.394,141.754,-325.010,-352.136,2312.500,2201.760,-1548.220
448,49135.371000,22.027,169.992,-224.371,166.213,-309.747,-360.462,2403.500,2188.760,-1100.220
449,49135.393000,40.627,139.636,-218.440,199.266,-279.088,-365.020,2464.500,2101.760,-691.220
450,49135.409000,45.522,123.447,-225.359,222.634,-266.726,-365.448,2472.500,1843.760,-343.220
451,49135.430000,44.543,104.221,-222.394,257.551,-244.801,-360.185,2503.500,1628.760,-74.220
452,49135.462000,31.816,93.091,-216.463,277.994,-239.187,-357.600,2495.500,1450.760,96.780
453,49135.490000,15.174,79.937,-211.521,303.977,-223.965,-341.342,2477.500,1489.760,270.780
454,49135.504000,9.300,61.723,-197.683,332.913,-208.769,-326.120,2480.500,1678.760,478.780
455,49135.513000,24.964,31.368,-179.892,344.507,-205.981,-319.437,2435.500,1765.760,705.780
456,49135.530000,36.711,1.012,-169.019,364.594,-193.611,-300.118,2391.500,1743.760,791.780
457,49135.559000,48.459,-25.296,-154.193,377.201,-192.765,-294.435,2280.500,1600.760,942.780
458,49135.575000,56.291,-39.462,-143.320,394.469,-194.880,-274.065,2119.500,1376.760,1071.780
459,49135.601000,67.059,-48.569,-131.459,399.223,-196.868,-265.287,1972.500,1155.760,1206.780
460,49135.621000,69.996,-61.723,-127.506,405.746,-204.692,-242.750,1807.500,846.760,1332.780
461,49135.644000,64.122,-73.866,-125.529,415.482,-216.399,-234.049,1675.500,612.760,1463.780
462,49135.646000,41.606,-90.055,-120.587,413.251,-228.011,-212.338,1539.500,490.760,1546.780
463,49135.678000,14.195,-102.198,-112.680,413.170,-249.310,-196.560,1416.500,618.760,1592.780
464,49135.700000,15.174,-111.304,-121.575,405.248,-256.019,-187.552,1369.500,666.760,1629.780
465,49135.722000,20.069,-128.506,-115.645,406.206,-276.355,-175.732,1278.500,711.760,1680.780
466,49135.741000,11.258,-137.613,-107.737,397.464,-288.854,-172.609,1124.500,616.760,1673.780
467,49135.761000,-4.405,-138.625,-111.691,383.769,-304.216,-164.473,997.500,567.760,1668.780
468,49135.789000,-9.300,-143.684,-105.761,383.797,-314.861,-160.523,909.500,568.760,1715.780
469,49135.806000,-10.279,-149.755,-88.958,365.314,-332.109,-157.223,780.500,594.760,1833.780
470,49135.829000,-25.943,-153.802,-96.865,346.927,-354.190,-156.872,679.500,645.760,1980.780
471,49135.843000,-31.816,-160.885,-93.900,327.411,-361.752,-155.533,566.500,715.760,2012.780
472,49135.864000,-23.985,-158.862,-88.958,305.076,-381.864,-154.130,406.500,586.760,2043.780
473,49135.889000,-19.090,-159.874,-99.830,296.401,-390.488,-156.920,333.500,429.760,2078.780
474,49135.909000,-26.922,-155.826,-107.737,271.208,-409.600,-160.389,260.500,198.760,2162.780
475,49135.931000,-68.038,-149.755,-91.923,245.786,-417.111,-156.978,161.500,154.760,2118.780
476,49135.951000,-72.933,-155.826,-94.888,220.575,-434.289,-160.449,49.500,201.760,2079.780
477,49135.975000,-56.291,-152.791,-110.703,204.955,-439.952,-159.182,-2.500,16.760,1995.780
478,49135.998000,-68.038,-138.625,-104.772,173.785,-453.210,-159.599,-52.500,5.760,2009.780
479,49136.15000,-95.449,-127.494,-96.865,146.528,-460.697,-163.046,-115.500,293.760,1984.780
480,49136.29000,-79.786,-138.625,-87.969,129.028,-465.370,-166.669,-275.500,371.760,1969.780
481,49136.65000,-44.543,-143.684,-83.027,96.878,-470.875,-171.016,-463.500,230.760,1847.780
482,49136.79000,-60.207,-124.459,-82.039,80.245,-474.596,-168.748,-526.500,-81.240,1795.780
483,49136.106000,-100.344,-109.281,-90.934,44.118,-473.294,-173.033,-612.500,122.760,1799.780
484,49136.109000,-121.881,-118.387,-98.842,34.376,-470.299,-176.802,-719.500,532.760,1760.780
485,49136.130000,-105.239,-116.364,-125.529,5.228,-468.085,-189.087,-822.500,626.760,1711.780
486,49136.158000,-108.176,-84.996,-118.610,-35.776,-458.995,-198.216,-862.500,705.760,1649.780
487,49136.183000,-133.629,-69.818,-103.784,-51.303,-455.941,-206.805,-979.500,915.760,1721.780
488,49136.200000,-103.281,-61.723,-148.263,-84.540,-442.086,-215.093,-1067.500,873.760,1765.780
489,49136.220000,-111.113,-32.379,-116.633,-102.120,-436.117,-219.712,-1154.500,587.760,1570.780
490,49136.243000,-145.377,-12.142,-103.784,-132.507,-428.101,-220.168,-1207.500,560.760,1529.780
491,49136.258000,-136.566,-14.166,-151.228,-145.178,-418.303,-227.831,-1395.500,701.760,1503.780
492,49136.280000,-110.134,-13.154,-164.077,-179.524,-403.479,-229.209,-1528.500,798.760,1456.780
493,49136.304000,-124.818,27.320,-147.274,-195.285,-397.535,-225.984,-1655.500,623.760,1217.780
494,49136.318000,-151.250,52.617,-149.251,-224.800,-381.791,-224.496,-1689.500,702.760,1077.780
495,49136.338000,-136.566,51.605,-173.961,-247.422,-363.203,-227.071,-1717.500,1131.760,1134.780
496,49136.355000,-104.260,62.735,-188.788,-261.202,-350.500,-228.811,-1777.500,1333.760,1094.780
497,49136.378000,-93.491,82.972,-156.170,-288.751,-331.869,-229.330,-1840.500,1267.760,936.780
498,49136.395000,-90.554,109.281,-152.216,-296.686,-322.125,-228.216,-2001.500,1277.760,881.780
499,49136.423000,-71.954,124.459,-189.776,-320.470,-298.698,-222.901,-2078.500,1241.760,867.780
500,49136.443000,-59.228,141.660,-204.602,-336.300,-290.823,-216.723,-2158.500,983.760,702.780
501,49136.470000,-82.723,165.945,-160.124,-349.491,-277.183,-196.816,-2210.500,622.760,558.780
502,49136.499000,-101.323,201.360,-129.483,-378.270,-259.525,-182.546,-2312.500,760.760,678.780
503,49136.513000,-66.080,245.881,-181.869,-385.442,-248.834,-169.633,-2365.500,1159.760,789.780
504,49136.525000,-23.985,247.905,-206.579,-402.487,-232.252,-154.584,-2275.500,1033.760,618.780
505,49136.548000,-30.837,242.846,-165.066,-417.409,-224.389,-144.485,-2319.500,530.760,462.780
506,49136.570000,-60.207,273.202,-124.541,-432.712,-212.676,-114.694,-2422.500,607.760,472.780
507,49136.590000,-63.143,318.735,-111.691,-434.940,-203.962,-103.836,-2425.500,935.760,577.780
508,49136.605000,-42.585,343.020,-174.950,-453.951,-186.394,-88.754,-2344.500,1579.760,578.780
509,49136.619000,-34.753,313.676,-207.568,-452.420,-175.789,-70.088,-2079.500,1576.760,334.780
510,49136.633000,-44.543,324.806,-201.637,-460.387,-173.790,-63.059,-2089.500,1326.760,4.780
511,49136.665000,-97.407,358.198,-190.764,-463.678,-170.880,-44.299,-1956.500,1476.760,-406.220
512,49136.688000,-116.008,347.067,-170.996,-464.682,-173.776,-41.325,-1679.500,2172.760,-734.220
513,49136.708000,-69.996,344.032,-196.695,-457.813,-181.580,-38.484,-1429.500,2569.760,-1156.220
514,49136.725000,-20.069,355.162,-198.672,-451.914,-190.343,-35.624,-1250.500,2347.760,-1682.220
515,49136.748000,-38.669,368.316,-195.707,-442.816,-214.605,-39.695,-1008.500,1895.760,-2116.220
516,49136.765000,-69.996,369.328,-207.568,-437.781,-228.192,-40.752,-892.500,1815.760,-2233.220
517,49136.788000,-63.143,383.494,-220.417,-427.661,-253.427,-46.809,-706.500,1967.760,-2374.220
518,49136.810000,-52.375,405.755,-237.220,-393.849,-282.736,-63.124,-478.500,2041.760,-2582.220
519,49136.828000,-59.228,399.684,-239.197,-392.573,-296.279,-72.975,-198.500,1960.760,-2752.220
520,49136.853000,-53.354,390.577,-250.069,-363.593,-324.572,-93.144,33.500,1854.760,-2806.220
521,49136.875000,-42.585,388.553,-259.954,-347.605,-336.311,-106.211,293.500,1671.760,-2950.220
522,49136.920000,-37.690,378.435,-255.012,-307.897,-360.832,-126.574,562.500,1456.760,-3078.220
523,49136.934000,-48.459,372.364,-256.000,-296.784,-372.526,-140.539,809.500,1342.760,-3137.220
524,49136.938000,-45.522,372.364,-256.988,-250.132,-394.200,-167.919,1080.500,1342.760,-3153.220
525,49136.955000,-51.396,371.352,-252.046,-214.341,-407.071,-194.133,1239.500,1349.760,-3165.220
526,49136.970000,-63.143,358.198,-245.127,-169.988,-412.293,-210.663,1542.500,1405.760,-3149.220
527,49136.996000,-64.122,346.055,-234.255,-110.681,-413.761,-245.182,1810.500,1653.760,-3056.220
528,49137.18000,-66.080,334.925,-221.405,-85.898,-414.934,-263.339,2097.500,2017.760,-2956.220
529,49137.40000,-74.891,310.640,-201.637,-14.094,-392.332,-298.108,2345.500,2505.760,-2791.220
530,49137.58000,-53.354,280.285,-188.788,7.714,-376.058,-323.124,2495.500,3146.760,-2416.220
531,49137.78000,-10.279,258.024,-184.834,65.686,-334.949,-359.638,2639.500,3589.760,-2057.220
532,49137.100000,31.816,228.680,-171.985,100.083,-312.022,-380.947,2713.500,3716.760,-1672.220
533,49137.123000,73.912,201.360,-159.135,151.773,-256.365,-401.616,2716.500,3668.760,-1240.220
534,49137.140000,114.050,172.016,-149.251,201.438,-206.501,-415.351,2723.500,3392.760,-1012.220
535,49137.163000,146.356,127.494,-149.251,214.838,-187.284,-408.719,2721.500,2878.760,-521.220
536,49137.185000,153.208,75.889,-145.297,257.590,-158.656,-407.540,2638.500,2234.760,-181.220
537,49137.214000,146.356,43.510,-153.205,273.980,-149.142,-398.981,2441.500,1615.760,106.780
538,49137.240000,139.503,24.285,-151.228,305.894,-134.938,-385.780,2248.500,1178.760,429.780
539,49137.259000,131.671,15.178,-163.089,322.277,-132.200,-373.275,2101.500,831.760,665.780
540,49137.273000,121.881,2.024,-170.996,346.385,-135.346,-352.040,2009.500,640.760,882.780
541,49137.277000,104.260,-7.083,-168.031,368.658,-140.403,-336.677,1929.500,552.760,1015.780
542,49137.294000,93.491,-18.213,-154.193,375.257,-141.447,-322.026,1889.500,565.760,1077.780
543,49137.321000,79.786,-28.332,-146.286,388.699,-153.201,-301.576,1795.500,621.760,1248.780
544,49137.344000,76.849,-48.569,-141.344,399.361,-159.112,-292.898,1702.500,685.760,1391.780
545,49137.363000,74.891,-65.771,-148.263,406.049,-173.702,-276.264,1601.500,586.760,1451.780
546,49137.390000,71.954,-91.067,-147.274,412.789,-182.482,-265.543,1485.500,439.760,1462.780
547,49137.408000,64.122,-99.162,-140.355,407.779,-199.866,-249.683,1360.500,439.760,1508.780
548,49137.429000,39.648,-104.221,-134.425,409.582,-205.700,-237.895,1269.500,661.760,1642.780
549,49137.446000,18.111,-113.328,-131.459,407.665,-225.038,-229.963,1217.500,1082.760,1838.780
550,49137.469000,17.132,-129.518,-112.680,402.872,-241.442,-226.905,1107.500,1485.760,2073.780
551,49137.495000,21.048,-138.625,-100.819,394.155,-252.972,-225.753,1031.500,1610.760,2193.780
552,49137.510000,28.880,-148.743,-111.691,383.603,-270.285,-228.500,896.500,1657.760,2353.780
553,49137.533000,40.627,-161.897,-113.668,370.002,-278.866,-229.233,754.500,1446.760,2406.780
554,49137.553000,47.480,-163.921,-102.795,352.662,-299.016,-233.825,530.500,1085.760,2378.780
555,49137.574000,48.459,-154.814,-93.900,341.987,-304.721,-235.599,308.500,561.760,2338.780
556,49137.594000,52.375,-155.826,-100.819,321.662,-334.527,-232.251,191.500,17.760,2283.780
557,49137.613000,43.564,-151.779,-91.923,291.414,-360.379,-222.825,64.500,-480.240,2156.780
558,49137.645000,2.447,-142.672,-86.981,276.835,-374.759,-220.582,-28.500,-592.240,2075.780
559,49137.664000,-51.396,-144.696,-112.680,251.512,-394.847,-216.172,-62.500,-462.240,2075.780
560,49137.683000,-58.249,-143.684,-112.680,233.961,-401.459,-215.854,-87.500,-88.240,2076.780
561,49137.703000,-55.312,-142.672,-109.714,205.735,-413.775,-217.309,-130.500,220.760,2046.780
562,49137.715000,-59.228,-135.589,-104.772,193.174,-425.265,-220.027,-199.500,417.760,2030.780
563,49137.736000,-77.828,-134.577,-103.784,158.182,-427.835,-231.218,-271.500,517.760,1961.780
564,49137.754000,-77.828,-128.506,-109.714,140.699,-426.700,-238.786,-344.500,673.760,1921.780
565,49137.775000,-72.933,-126.482,-105.761,107.656,-428.321,-250.013,-397.500,772.760,1906.780
566,49137.801000,-79.786,-113.328,-96.865,77.513,-428.034,-260.309,-475.500,812.760,1814.780
567,49137.824000,-97.407,-113.328,-107.737,65.874,-424.050,-267.983,-578.500,938.760,1733.780
568,49137.841000,-100.344,-114.340,-120.587,29.849,-414.999,-282.123,-631.500,1038.760,1718.780
569,49137.864000,-98.386,-103.209,-121.575,19.250,-413.924,-291.781,-716.500,1177.760,1587.780
570,49137.895000,-100.344,-90.055,-102.795,-8.993,-396.237,-308.038,-807.500,1305.760,1431.780
571,49137.899000,-93.491,-101.186,-109.714,-20.581,-386.442,-321.627,-993.500,1527.760,1344.780
572,49137.930000,-54.333,-114.340,-156.170,-54.782,-366.770,-333.843,-1312.500,1422.760,1311.780
573,49137.948000,-38.669,-80.949,-170.008,-81.169,-354.913,-341.265,-1529.500,784.760,1033.780
574,49137.961000,-86.639,-39.462,-152.216,-95.899,-352.847,-339.038,-1609.500,276.760,836.780
575,49137.999000,-127.755,-27.320,-170.008,-123.429,-341.958,-336.595,-1692.500,409.760,927.780
576,49138.13000,-101.323,-32.379,-181.869,-145.962,-336.916,-337.187,-1726.500,814.760,1043.780
577,49138.21000,-73.912,-14.166,-176.927,-168.549,-322.197,-339.758,-1741.500,842.760,964.780
578,49138.49000,-87.618,15.178,-178.903,-184.371,-315.289,-333.579,-1779.500,761.760,756.780
579,49138.66000,-82.723,23.273,-191.753,-215.860,-295.656,-333.045,-1842.500,822.760,742.780
580,49138.87000,-59.228,23.273,-190.764,-227.743,-287.814,-328.906,-1945.500,896.760,680.780
581,49138.104000,-54.333,49.581,-186.811,-252.390,-275.019,-324.547,-2023.500,699.760,418.780
582,49138.131000,-75.870,82.972,-200.649,-274.222,-264.193,-312.360,-2074.500,591.760,277.780
583,49138.151000,-75.870,102.198,-215.475,-293.984,-256.283,-305.128,-2105.500,755.760,285.780
584,49138.169000,-61.185,115.352,-195.707,-313.869,-242.572,-293.964,-2125.500,922.760,181.780
585,49138.200000,-61.185,139.636,-170.008,-322.911,-233.794,-284.954,-2150.500,992.760,112.780
586,49138.204000,-68.038,174.040,-162.100,-341.861,-219.127,-271.838,-2224.500,1121.760,116.780
587,49138.233000,-47.480,197.312,-157.158,-358.661,-212.210,-265.642,-2304.500,1378.760,136.780
588,49138.260000,-8.321,221.597,-168.031,-379.620,-195.592,-250.524,-2434.500,1360.760,-8.220
589,49138.263000,9.300,232.727,-160.124,-396.820,-184.825,-223.652,-2494.500,919.760,-238.220
590,49138.280000,-15.174,253.976,-156.170,-402.925,-183.817,-210.747,-2517.500,579.760,-376.220
591,49138.313000,-39.648,285.344,-148.263,-419.056,-184.669,-182.896,-2531.500,852.760,-403.220
592,49138.321000,-25.943,316.711,-137.390,-424.202,-175.928,-172.971,-2517.500,1418.760,-404.220
593,49138.354000,8.321,326.830,-119.598,-437.392,-166.160,-151.091,-2489.500,1794.760,-473.220
594,49138.371000,24.964,346.055,-155.181,-448.380,-164.139,-139.085,-2452.500,1834.760,-556.220
595,49138.394000,13.216,365.281,-197.683,-447.661,-164.162,-124.331,-2171.500,1841.760,-794.220
596,49138.414000,9.300,373.376,-192.741,-446.760,-167.079,-118.437,-1860.500,1955.760,-1046.220
597,49138.431000,20.069,358.198,-170.008,-454.735,-167.984,-109.435,-1595.500,2223.760,-1174.220
598,49138.454000,23.006,361.233,-220.417,-446.870,-175.797,-107.596,-1328.500,2161.760,-1538.220
599,49138.476000,11.258,380.459,-257.977,-444.763,-190.325,-108.601,-1008.500,1967.760,-2044.220
600,49138.499000,-17.132,396.648,-244.139,-430.842,-210.763,-110.792,-667.500,2088.760,-2355.220
601,49138.521000,-24.964,384.506,-224.371,-421.860,-220.512,-115.862,-423.500,2467.760,-2488.220
602,49138.540000,15.174,385.518,-223.382,-409.516,-240.911,-139.683,-155.500,2564.760,-2781.220
603,49138.564000,43.564,392.601,-236.232,-394.594,-250.709,-148.796,-24.500,2381.760,-2944.220
604,49138.581000,28.880,394.625,-246.116,-366.592,-278.994,-168.947,243.500,2038.760,-3174.220
605,49138.604000,27.901,379.447,-229.313,-333.656,-302.481,-194.114,413.500,1917.760,-3180.220
606,49138.623000,45.522,382.482,-244.139,-318.717,-312.278,-204.211,650.500,1707.760,-3250.220
607,49138.640000,41.606,380.459,-268.849,-278.940,-332.924,-230.486,941.500,1403.760,-3288.220
608,49138.662000,17.132,368.316,-269.838,-260.026,-343.722,-243.606,1212.500,1344.760,-3217.220
609,49138.693000,15.174,352.126,-268.849,-208.632,-352.867,-269.116,1444.500,1420.760,-3076.220
610,49138.711000,39.648,347.067,-280.710,-176.012,-357.014,-286.424,1700.500,1307.760,-2954.220
611,49138.725000,41.606,331.889,-274.780,-129.616,-360.313,-308.899,1806.500,1231.760,-2888.220
612,49138.744000,24.964,321.771,-265.884,-104.964,-354.717,-323.124,2017.500,1241.760,-2657.220
613,49138.761000,23.985,303.557,-251.058,-52.778,-347.427,-346.699,2242.500,1463.760,-2318.220
614,49138.789000,39.648,284.332,-243.151,10.137,-334.429,-371.454,2440.500,1583.760,-2015.220
615,49138.806000,46.501,262.071,-238.208,33.547,-319.161,-375.824,2582.500,1563.760,-1717.220
616,49138.830000,38.669,237.787,-231.290,88.398,-299.330,-390.600,2694.500,1615.760,-1388.220
617,49138.851000,38.669,213.502,-224.371,112.770,-286.006,-393.015,2777.500,1720.760,-1046.220
618,49138.869000,37.690,191.241,-207.568,159.610,-259.339,-400.767,2796.500,1790.760,-736.220
619,49138.894000,51.396,168.980,-200.649,181.947,-243.099,-400.196,2799.500,1760.760,-427.220
620,49138.906000,64.122,146.719,-210.533,223.696,-219.302,-395.056,2800.500,1663.760,-306.220
621,49138.920000,69.996,119.399,-210.533,264.425,-202.275,-383.983,2777.500,1481.760,-91.220
622,49138.939000,65.101,96.126,-206.579,288.643,-196.703,-373.589,2693.500,1310.760,101.780
623,49138.966000,52.375,82.972,-204.602,319.544,-178.621,-360.375,2645.500,1335.760,325.780
624,49138.994000,50.417,67.794,-185.822,332.965,-174.890,-346.834,2606.500,1525.760,622.780
625,49139.11000,53.354,46.545,-166.054,362.837,-166.480,-325.715,2517.500,1598.760,874.780
626,49139.49000,54.333,22.261,-157.158,372.379,-162.711,-314.074,2402.500,1612.760,1090.780
627,49139.63000,57.270,-5.059,-148.263,396.539,-163.919,-296.780,2257.500,1553.760,1272.780
628,49139.76000,56.291,-24.285,-143.320,407.086,-164.997,-284.168,2191.500,1541.760,1431.780
629,49139.96000,61.185,-47.557,-124.541,415.671,-176.704,-265.601,2011.500,1443.760,1492.780
630,49139.119000,51.396,-77.913,-118.610,427.033,-180.704,-242.171,1830.500,1264.760,1582.780
631,49139.139000,44.543,-95.115,-106.749,420.161,-193.226,-234.159,1687.500,1112.760,1658.780
632,49139.161000,40.627,-107.257,-107.737,422.961,-206.811,-219.426,1528.500,1028.760,1715.780
633,49139.180000,33.774,-125.470,-102.795,426.852,-217.494,-212.591,1376.500,854.760,1759.780
634,49139.198000,22.027,-137.613,-94.888,420.961,-239.704,-199.663,1230.500,702.760,1782.780
635,49139.219000,14.195,-141.660,-90.934,412.140,-251.240,-192.602,1075.500,630.760,1807.780
636,49139.239000,8.321,-144.696,-84.015,402.412,-270.506,-185.516,929.500,628.760,1876.780
637,49139.264000,-5.384,-151.779,-76.108,389.775,-294.583,-177.389,862.500,635.760,1900.780
638,49139.291000,-10.279,-158.862,-70.178,383.958,-302.270,-176.292,709.500,680.760,1946.780
639,49139.306000,-3.426,-162.909,-72.154,364.583,-319.503,-177.898,541.500,720.760,1978.780
640,49139.339000,-8.321,-163.921,-81.050,357.884,-332.015,-179.734,367.500,611.760,2014.780
641,49139.358000,-25.943,-163.921,-81.050,333.644,-354.042,-180.264,246.500,511.760,2090.780
642,49139.371000,-37.690,-162.909,-83.027,318.172,-362.600,-185.887,120.500,562.760,2153.780
643,49139.378000,-22.027,-158.862,-81.050,287.072,-377.790,-189.257,-8.500,586.760,2168.780
644,49139.401000,-29.859,-150.767,-92.911,277.541,-392.205,-195.962,-121.500,386.760,2201.780
645,49139.422000,-47.480,-140.648,-96.865,236.656,-407.306,-199.159,-187.500,345.760,2244.780
646,49139.443000,-68.038,-145.708,-85.004,203.615,-418.606,-205.452,-216.500,411.760,2236.780
647,49139.480000,-63.143,-166.957,-94.888,190.100,-425.246,-212.097,-344.500,551.760,2074.780
648,49139.483000,-40.627,-157.850,-102.795,160.973,-436.581,-218.459,-525.500,407.760,1900.780
649,49139.503000,-65.101,-131.542,-97.853,144.425,-436.425,-223.089,-659.500,124.760,1755.780
650,49139.523000,-107.197,-124.459,-97.853,106.351,-438.009,-226.351,-788.500,235.760,1780.780
651,49139.549000,-102.302,-142.672,-115.645,101.632,-441.827,-234.139,-886.500,454.760,1781.780
652,49139.569000,-62.164,-136.601,-116.633,60.665,-440.478,-241.291,-1017.500,450.760,1685.780
653,49139.599000,-69.996,-97.138,-103.784,34.427,-439.259,-251.658,-1106.500,396.760,1568.780
654,49139.608000,-109.155,-76.901,-127.506,11.913,-436.151,-252.247,-1159.500,449.760,1637.780
655,49139.630000,-98.386,-89.043,-143.320,-28.978,-428.023,-267.285,-1178.500,697.760,1684.780
656,49139.649000,-67.059,-81.960,-133.436,-42.723,-419.190,-269.021,-1243.500,813.760,1634.780
657,49139.669000,-71.954,-51.605,-140.355,-78.825,-413.047,-277.249,-1352.500,640.760,1482.780
658,49139.689000,-96.428,-37.439,-154.193,-95.547,-405.158,-275.978,-1401.500,607.760,1515.780
659,49139.720000,-110.134,-33.391,-153.205,-124.923,-391.341,-281.381,-1425.500,824.760,1461.780
660,49139.734000,-99.365,-27.320,-151.228,-142.504,-381.500,-287.973,-1522.500,1026.760,1372.780
661,49139.772000,-98.386,-12.142,-158.147,-172.902,-364.774,-292.377,-1666.500,994.760,1125.780
662,49139.780000,-85.660,-3.036,-173.961,-202.452,-345.160,-290.893,-1847.500,827.760,951.780
663,49139.800000,-88.597,25.296,-178.903,-210.350,-341.221,-288.789,-1913.500,745.760,858.780
664,49139.823000,-115.029,61.723,-163.089,-237.015,-325.508,-282.428,-1945.500,666.760,657.780
665,49139.835000,-132.650,87.020,-142.332,-254.673,-318.575,-283.109,-1929.500,1028.760,601.780
666,49139.863000,-113.071,94.103,-164.077,-278.326,-298.045,-283.699,-2010.500,1583.760,597.780
667,49139.885000,-66.080,97.138,-212.510,-291.232,-283.421,-280.534,-2160.500,1499.760,408.780
668,49139.889000,-36.711,121.423,-202.625,-313.065,-270.660,-269.334,-2274.500,913.760,170.780
669,49139.910000,-58.249,155.826,-164.077,-330.073,-263.755,-251.321,-2382.500,613.760,164.780
670,49139.926000,-78.807,199.336,-174.950,-344.986,-256.859,-241.220,-2453.500,769.760,269.780
671,49139.959000,-61.185,220.585,-208.556,-364.992,-241.219,-224.149,-2373.500,863.760,110.780
672,49139.982000,-36.711,218.561,-194.718,-379.974,-232.392,-211.096,-2366.500,703.760,34.780
673,49140.14000,-51.396,226.656,-164.077,-396.090,-227.436,-187.190,-2426.500,536.760,-63.220
674,49140.18000,-69.996,276.237,-200.649,-400.160,-225.473,-179.245,-2425.500,710.760,-133.220
675,49140.39000,-58.249,294.451,-237.220,-413.288,-222.477,-157.358,-2170.500,947.760,-265.220
676,49140.66000,-54.333,284.332,-222.394,-410.709,-215.748,-140.676,-2045.500,970.760,-466.220
677,49140.81000,-85.660,286.356,-195.707,-420.546,-215.662,-137.549,-2032.500,1224.760,-774.220
678,49140.129000,-83.702,325.818,-202.625,-420.796,-218.580,-121.789,-1910.500,1560.760,-985.220
679,49140.135000,-64.122,346.055,-233.266,-429.610,-221.404,-119.661,-1640.500,1545.760,-1266.220
680,49140.149000,-53.354,329.866,-231.290,-419.866,-232.142,-111.946,-1525.500,1525.760,-1386.220
681,49140.171000,-57.270,331.889,-215.475,-416.938,-235.073,-110.025,-1347.500,1608.760,-1596.220
682,49140.190000,-53.354,339.984,-205.591,-403.019,-249.704,-115.176,-1130.500,1868.760,-1705.220
683,49140.208000,-30.837,337.960,-220.417,-406.801,-258.372,-118.053,-840.500,1931.760,-1846.220
684,49140.224000,-30.837,329.866,-227.336,-394.763,-268.141,-130.068,-595.500,1863.760,-2091.220
685,49140.250000,-37.690,333.913,-222.394,-373.777,-289.597,-144.196,-395.500,1934.760,-2251.220
686,49140.275000,-34.753,337.960,-215.475,-362.778,-294.521,-155.214,-152.500,2124.760,-2365.220
687,49140.293000,-21.048,325.818,-208.556,-340.703,-309.205,-179.214,74.500,2220.760,-2454.220
688,49140.315000,-4.405,319.747,-214.486,-323.851,-314.183,-189.351,280.500,2172.760,-2548.220
689,49140.333000,5.384,310.640,-219.429,-295.819,-325.044,-220.352,353.500,2115.760,-2588.220
690,49140.349000,14.195,304.569,-225.359,-287.774,-328.006,-231.320,481.500,1919.760,-2638.220
691,49140.370000,29.859,308.617,-259.954,-244.208,-337.080,-256.692,628.500,1512.760,-2651.220
692,49140.393000,39.648,306.593,-291.583,-230.099,-351.700,-272.676,832.500,994.760,-2659.220
693,49140.408000,26.922,296.474,-298.502,-186.845,-356.920,-282.295,996.500,662.760,-2622.220
694,49140.426000,3.426,296.474,-307.398,-149.383,-364.986,-294.762,1208.500,674.760,-2502.220
695,49140.454000,-15.174,292.427,-313.328,-131.572,-364.167,-306.891,1501.500,900.760,-2314.220
696,49140.473000,-2.447,283.320,-313.328,-83.341,-361.683,-325.468,1798.500,1053.760,-2143.220
697,49140.495000,11.258,269.154,-305.421,-59.763,-358.987,-332.779,2048.500,1052.760,-1954.220
698,49140.511000,23.006,251.953,-296.525,-10.650,-349.742,-349.410,2149.500,945.760,-1859.220
699,49140.533000,18.111,235.763,-284.664,17.725,-344.193,-352.872,2287.500,902.760,-1709.220
700,49140.560000,-0.489,231.715,-272.803,69.651,-333.046,-363.648,2402.500,1072.760,-1530.220
701,49140.609000,3.426,213.502,-258.965,115.573,-309.270,-373.349,2537.500,1386.760,-1251.220
702,49140.623000,30.837,159.874,-236.232,134.128,-299.762,-376.641,2631.500,1512.760,-1058.220
703,49140.623000,39.648,135.589,-230.301,180.865,-276.973,-376.511,2675.500,1479.760,-850.220
704,49140.639000,35.732,117.375,-218.440,211.066,-268.545,-374.101,2681.500,1401.760,-685.220
705,49140.660000,38.669,100.174,-208.556,249.862,-246.658,-366.938,2675.500,1436.760,-445.220
706,49140.688000,51.396,76.901,-206.579,274.080,-237.215,-358.517,2676.500,1449.760,-301.220
707,49140.703000,67.059,50.593,-204.602,305.959,-219.142,-345.320,2683.500,1430.760,-33.220
708,49140.720000,72.933,26.308,-190.764,322.140,-205.768,-326.917,2653.500,1236.760,199.780
709,49140.738000,65.101,4.047,-164.077,351.226,-205.082,-312.666,2616.500,1048.760,429.780
710,49140.764000,52.375,-8.095,-149.251,368.397,-200.428,-290.333,2510.500,991.760,627.780
711,49140.785000,47.480,-24.285,-136.402,389.734,-202.570,-278.894,2409.500,1110.760,838.780
712,49140.808000,56.291,-47.557,-105.761,402.931,-202.723,-250.579,2280.500,1338.760,1011.780
713,49140.828000,65.101,-66.783,-100.819,412.648,-206.687,-244.839,2091.500,1385.760,1166.780
714,49140.850000,61.185,-93.091,-83.027,421.170,-213.559,-225.293,1895.500,1264.760,1237.780
715,49140.873000,57.270,-117.375,-84.015,417.154,-217.401,-217.342,1780.500,1157.760,1269.780
716,49140.888000,57.270,-131.542,-86.981,418.932,-228.075,-201.609,1581.500,966.760,1363.780
717,49140.905000,46.501,-142.672,-85.004,424.703,-245.557,-186.924,1404.500,811.760,1443.780
718,49140.919000,32.795,-145.708,-80.062,418.791,-252.281,-180.905,1233.500,732.760,1530.780
719,49140.943000,23.006,-152.791,-64.247,410.041,-269.620,-174.823,1077.500,802.760,1651.780
720,49140.965000,11.258,-163.921,-61.282,400.259,-281.146,-168.730,905.500,867.760,1736.780
721,49140.986000,7.342,-177.075,-62.270,384.746,-298.418,-167.451,722.500,943.760,1784.780
722,49141.11000,8.321,-181.123,-64.247,384.895,-307.120,-171.381,529.500,936.760,1800.780
723,49141.29000,10.279,-180.111,-66.224,365.554,-324.352,-174.956,424.500,894.760,1802.780
724,49141.49000,14.195,-178.087,-87.969,359.931,-343.643,-178.772,214.500,714.760,1832.780
725,49141.69000,5.384,-158.862,-102.795,328.742,-353.030,-180.178,55.500,399.760,1815.780
726,49141.90000,-21.048,-148.743,-102.795,307.393,-372.182,-179.778,-50.500,137.760,1744.780
727,49141.113000,-34.753,-153.802,-109.714,298.640,-375.971,-180.603,-135.500,110.760,1735.780
728,49141.129000,-32.795,-150.767,-109.714,265.670,-395.010,-186.889,-163.500,214.760,1785.780
729,49141.149000,-49.438,-147.731,-102.795,258.866,-401.720,-185.776,-196.500,314.760,1870.780
730,49141.170000,-53.354,-147.731,-101.807,231.809,-415.970,-197.094,-277.500,501.760,1934.780
731,49141.193000,-33.774,-152.791,-104.772,220.111,-418.765,-197.868,-404.500,466.760,1956.780
732,49141.215000,-39.648,-138.625,-107.737,177.293,-427.071,-205.961,-475.500,327.760,1920.780
733,49141.233000,-56.291,-127.494,-109.714,148.183,-436.470,-214.295,-578.500,161.760,1903.780
734,49141.256000,-56.291,-121.423,-116.633,135.551,-442.156,-216.034,-678.500,221.760,1990.780
735,49141.273000,-67.059,-113.328,-125.529,91.684,-446.586,-222.144,-752.500,225.760,1983.780
736,49141.300000,-82.723,-108.269,-125.529,81.943,-447.463,-223.939,-793.500,231.760,1919.780
737,49141.333000,-80.765,-102.198,-119.598,41.002,-447.080,-232.076,-863.500,342.760,1867.780
738,49141.361000,-76.849,-86.008,-113.668,19.527,-444.946,-235.636,-966.500,510.760,1826.780
739,49141.364000,-84.681,-61.723,-128.494,-11.656,-441.750,-243.948,-1031.500,645.760,1866.780
740,49141.385000,-101.323,-56.664,-130.471,-50.661,-427.836,-258.041,-1042.500,739.760,1882.780
741,49141.398000,-98.386,-60.711,-121.575,-67.254,-420.907,-263.662,-1085.500,1004.760,1882.780
742,49141.423000,-79.786,-55.652,-130.471,-101.461,-408.011,-271.932,-1255.500,1140.760,1830.780
743,49141.436000,-70.975,-37.439,-144.309,-123.899,-400.059,-279.420,-1406.500,1017.760,1718.780
744,49141.459000,-75.870,-12.142,-157.158,-159.268,-378.453,-281.773,-1539.500,844.760,1674.780
745,49141.481000,-87.618,3.036,-152.216,-175.939,-370.560,-283.456,-1648.500,797.760,1584.780
746,49141.499000,-91.533,1.012,-151.228,-212.295,-351.850,-283.819,-1832.500,712.760,1405.780
747,49141.521000,-88.597,17.202,-174.950,-225.138,-345.933,-279.661,-2004.500,455.760,1197.780
748,49141.544000,-92.512,49.581,-184.834,-256.782,-334.053,-266.317,-2088.500,244.760,1013.780
749,49141.578000,-109.155,86.008,-183.846,-280.685,-316.440,-251.148,-2107.500,262.760,979.780
750,49141.600000,-127.755,111.304,-205.591,-289.631,-314.432,-244.101,-2101.500,428.760,935.780
751,49141.604000,-123.839,120.411,-213.498,-323.277,-293.825,-232.701,-2034.500,697.760,853.780
752,49141.628000,-122.860,130.530,-192.741,-333.193,-285.032,-229.583,-2008.500,908.760,685.780
753,49141.645000,-123.839,164.933,-194.718,-351.209,-265.537,-216.489,-2045.500,1065.760,594.780
754,49141.668000,-114.050,194.277,-212.510,-366.988,-259.594,-212.279,-2013.500,1163.760,589.780
755,49141.690000,-96.428,210.466,-219.429,-383.038,-239.148,-200.205,-1987.500,1074.760,483.780
756,49141.716000,-96.428,228.680,-202.625,-397.112,-228.397,-184.218,-1957.500,992.760,325.780
757,49141.730000,-108.176,245.881,-172.973,-404.170,-222.539,-175.239,-1952.500,1202.760,297.780
758,49141.753000,-100.344,260.047,-160.124,-417.267,-205.991,-162.229,-1943.500,1403.760,307.780
759,49141.785000,-64.122,261.059,-147.274,-423.253,-195.297,-161.151,-1964.500,1780.760,265.780
760,49141.818000,-23.006,266.119,-133.436,-433.473,-183.617,-142.280,-2066.500,1853.760,10.780
761,49141.824000,3.426,280.285,-132.448,-444.342,-175.782,-140.128,-2115.500,1609.760,-339.220
762,49141.838000,0.489,286.356,-152.216,-447.633,-174.808,-120.381,-2036.500,1397.760,-689.220
763,49141.854000,-10.279,292.427,-166.054,-445.814,-176.769,-111.551,-1965.500,1444.760,-989.220
764,49141.870000,-14.195,307.605,-172.973,-447.994,-182.571,-95.755,-1817.500,1678.760,-1212.220
765,49141.899000,-17.132,323.794,-199.660,-450.927,-194.159,-89.782,-1560.500,1892.760,-1379.220
766,49141.924000,-11.258,335.937,-220.417,-440.127,-201.998,-87.995,-1274.500,1996.760,-1573.220
767,49141.939000,0.489,346.055,-213.498,-436.998,-213.629,-92.959,-1130.500,2172.760,-1693.220
768,49141.961000,-2.447,348.079,-207.568,-433.004,-222.371,-93.020,-852.500,2272.760,-1913.220
769,49141.976000,8.321,338.972,-238.208,-415.967,-239.922,-107.083,-604.500,2214.760,-2148.220
770,49141.998000,18.111,344.032,-248.093,-409.930,-248.677,-112.102,-386.500,2047.760,-2447.220
771,49142.14000,6.363,350.103,-233.266,-388.847,-274.967,-129.180,-203.500,1953.760,-2603.220
772,49142.41000,10.279,342.008,-265.884,-364.847,-297.414,-147.298,29.500,1865.760,-2702.220
773,49142.55000,12.237,336.949,-268.849,-357.735,-309.076,-156.271,253.500,1635.760,-2801.220
774,49142.78000,3.426,333.913,-272.803,-326.834,-329.646,-178.451,459.500,1456.760,-2807.220
775,49142.100000,-4.405,325.818,-270.826,-307.038,-335.619,-188.639,576.500,1444.760,-2752.220
776,49142.128000,10.279,318.735,-270.826,-273.143,-351.372,-216.785,825.500,1496.760,-2642.220
777,49142.146000,16.153,309.628,-280.710,-250.393,-359.306,-227.023,1085.500,1398.760,-2593.220
778,49142.165000,9.300,300.522,-284.664,-210.698,-365.438,-256.267,1311.500,1141.760,-2549.220
779,49142.175000,5.384,295.462,-289.606,-185.862,-372.415,-274.419,1505.500,950.760,-2434.220
780,49142.198000,-5.384,291.415,-291.583,-146.575,-373.731,-282.988,1732.500,857.760,-2312.220
781,49142.235000,-18.111,279.273,-282.687,-91.416,-374.208,-304.637,1961.500,867.760,-2154.220
782,49142.248000,-25.943,270.166,-270.826,-71.683,-371.473,-315.818,2156.500,994.760,-1985.220
783,49142.265000,-23.985,260.047,-260.942,-21.591,-366.109,-330.493,2336.500,1149.760,-1832.220
784,49142.288000,-21.048,244.870,-250.069,-2.854,-359.495,-342.645,2415.500,1212.760,-1738.220
785,49142.309000,-14.195,223.621,-230.301,49.044,-341.574,-355.398,2549.500,1390.760,-1534.220
786,49142.325000,-14.195,201.360,-214.486,75.505,-333.100,-362.767,2631.500,1617.760,-1267.220
787,49142.350000,-2.447,178.087,-214.486,125.297,-306.459,-371.555,2693.500,1815.760,-1025.220
788,49142.365000,23.985,149.755,-206.579,167.244,-279.748,-379.220,2744.500,1846.760,-787.220
789,49142.386000,38.669,121.423,-193.730,197.437,-270.352,-376.812,2704.500,1668.760,-636.220
790,49142.414000,42.585,98.150,-196.695,237.229,-248.474,-370.650,2648.500,1430.760,-466.220
791,49142.436000,51.396,70.830,-177.915,262.494,-239.036,-366.186,2609.500,1360.760,-256.220
792,49142.451000,58.249,51.605,-171.985,295.352,-220.971,-353.006,2557.500,1337.760,-97.220
793,49142.474000,69.017,28.332,-166.054,311.768,-212.424,-345.431,2478.500,1274.760,-1.220
794,49142.491000,85.660,6.071,-162.100,339.683,-202.061,-325.263,2400.500,1214.760,241.780
795,49142.519000,97.407,-14.166,-156.170,345.223,-194.389,-310.603,2314.500,1154.760,473.780
796,49142.555000,100.344,-33.391,-146.286,368.509,-197.518,-298.214,2194.500,1052.760,743.780
797,49142.558000,96.428,-52.617,-138.378,389.665,-204.510,-273.969,2051.500,944.760,1027.780
798,49142.570000,95.449,-68.806,-133.436,391.484,-204.535,-266.125,1913.500,849.760,1268.780
799,49142.598000,82.723,-75.889,-127.506,400.122,-222.047,-247.553,1787.500,720.760,1417.780
800,49142.613000,67.059,-82.972,-118.610,400.911,-225.938,-234.764,1678.500,680.760,1579.780
801,49142.635000,52.375,-97.138,-98.842,402.681,-241.453,-216.073,1623.500,725.760,1648.780
802,49142.658000,43.564,-107.257,-101.807,393.904,-252.018,-211.967,1441.500,795.760,1756.780
803,49142.675000,36.711,-121.423,-102.795,388.011,-270.357,-201.013,1310.500,793.760,1837.780
804,49142.694000,22.027,-131.542,-98.842,382.198,-293.530,-192.023,1159.500,756.760,1882.780
805,49142.716000,8.321,-137.613,-99.830,373.411,-301.192,-188.905,1011.500,825.760,1949.780
806,49142.744000,-19.090,-143.684,-91.923,357.959,-321.364,-189.592,878.500,997.760,2071.780
807,49142.767000,-39.648,-150.767,-92.911,355.112,-327.140,-191.504,780.500,1353.760,2182.780
808,49142.788000,-18.111,-157.850,-85.992,329.095,-344.299,-204.806,642.500,1641.760,2308.780
809,49142.801000,7.342,-159.874,-89.946,310.574,-349.933,-205.456,430.500,1455.760,2423.780
810,49142.841000,0.489,-148.743,-86.981,283.569,-364.181,-219.729,343.500,1284.760,2435.780
811,49142.850000,-25.943,-144.696,-74.131,254.487,-378.417,-227.073,170.500,1034.760,2384.780
812,49142.864000,-21.048,-149.755,-81.050,243.907,-387.020,-232.782,-12.500,847.760,2384.780
813,49142.895000,-11.258,-146.719,-80.062,207.974,-399.258,-240.992,-176.500,573.760,2360.780
814,49142.908000,-35.732,-127.494,-80.062,183.670,-406.770,-245.476,-318.500,427.760,2380.780
815,49142.928000,-63.143,-120.411,-83.027,146.723,-415.130,-253.673,-439.500,546.760,2359.780
816,49142.950000,-57.270,-132.553,-95.876,132.175,-415.957,-260.305,-590.500,620.760,2310.780
817,49142.973000,-59.228,-128.506,-111.691,95.201,-419.479,-269.492,-708.500,517.760,2203.780
818,49142.988000,-77.828,-111.304,-118.610,75.700,-417.361,-274.071,-754.500,537.760,2160.780
819,49143.10000,-103.281,-94.103,-104.772,39.695,-417.989,-284.263,-819.500,737.760,2087.780
820,49143.28000,-94.470,-97.138,-96.865,1.670,-407.955,-296.399,-938.500,992.760,2002.780
821,49143.48000,-90.554,-100.174,-116.633,-20.726,-397.097,-307.829,-1061.500,979.760,1817.780
822,49143.70000,-100.344,-94.103,-139.367,-54.992,-389.044,-310.186,-1201.500,867.760,1576.780
823,49143.93000,-108.176,-71.842,-132.448,-67.620,-380.212,-319.817,-1338.500,911.760,1331.780
824,49143.113000,-104.260,-55.652,-132.448,-99.940,-363.465,-326.156,-1478.500,1058.760,1231.780
825,49143.135000,-112.092,-31.368,-161.112,-116.551,-354.602,-331.780,-1504.500,1140.760,1109.780
826,49143.150000,-111.113,-32.379,-173.961,-143.970,-336.931,-339.191,-1580.500,1217.760,998.780
827,49143.173000,-102.302,-17.202,-166.054,-170.447,-315.400,-346.623,-1620.500,1277.760,926.780
828,49143.203000,-104.260,6.071,-160.124,-182.251,-306.586,-347.409,-1682.500,1366.760,773.780
829,49143.216000,-104.260,19.225,-170.008,-213.768,-284.051,-346.878,-1833.500,1402.760,667.780
830,49143.235000,-89.576,23.273,-191.753,-221.738,-270.437,-345.768,-1976.500,1295.760,471.780
831,49143.264000,-69.996,39.462,-175.938,-248.447,-253.759,-337.440,-2113.500,1105.760,225.780
832,49143.274000,-65.101,73.866,-171.985,-263.230,-245.888,-335.218,-2287.500,957.760,112.780
833,49143.290000,-65.101,112.316,-200.649,-290.007,-233.085,-320.977,-2325.500,831.760,12.780
834,49143.322000,-50.417,119.399,-199.660,-300.901,-230.091,-314.881,-2417.500,711.760,-89.220
835,49143.330000,-38.669,132.553,-199.660,-328.742,-221.156,-293.726,-2523.500,540.760,-192.220
836,49143.347000,-39.648,167.968,-211.521,-347.802,-217.142,-268.782,-2524.500,490.760,-193.220
837,49143.377000,-41.606,189.217,-197.683,-359.761,-210.272,-259.718,-2555.500,601.760,-120.220
838,49143.401000,-27.901,214.514,-209.544,-382.701,-202.348,-238.648,-2544.500,658.760,-133.220
839,49143.424000,-22.027,227.668,-218.440,-384.910,-199.441,-225.814,-2504.500,507.760,-168.220
840,49143.444000,-26.922,233.739,-211.521,-410.888,-197.304,-195.824,-2541.500,427.760,-248.220
841,49143.462000,-33.774,295.462,-250.069,-412.152,-194.408,-181.038,-2469.500,288.760,-467.220
842,49143.484000,-57.270,287.368,-266.873,-421.443,-196.291,-152.322,-2198.500,38.760,-751.220
843,49143.501000,-96.428,293.439,-258.965,-426.618,-206.909,-130.560,-2000.500,109.760,-1014.220
844,49143.521000,-122.860,315.700,-243.151,-433.552,-212.659,-122.555,-1758.500,370.760,-1148.220
845,49143.544000,-110.134,323.794,-216.463,-431.593,-220.420,-118.643,-1592.500,1265.760,-1200.220
846,49143.571000,-63.143,315.700,-200.649,-428.588,-222.379,-121.647,-1257.500,2199.760,-1334.220
847,49143.580000,-21.048,304.569,-215.475,-424.491,-227.243,-129.590,-990.500,2490.760,-1509.220
848,49143.600000,-3.426,292.427,-211.521,-410.660,-236.072,-132.777,-750.500,2183.760,-1799.220
849,49143.623000,-13.216,298.498,-213.498,-401.643,-247.755,-138.830,-607.500,1783.760,-2051.220
850,49143.640000,-23.985,316.711,-244.139,-396.383,-265.201,-150.716,-490.500,1531.760,-2251.220
851,49143.663000,-28.880,320.759,-266.873,-380.560,-275.981,-154.921,-325.500,1375.760,-2447.220
852,49143.685000,-29.859,321.771,-273.792,-355.686,-298.442,-167.148,-160.500,1253.760,-2639.220
853,49143.708000,-28.880,328.854,-282.687,-338.815,-309.227,-175.310,-90.500,1239.760,-2708.220
854,49143.730000,-18.111,325.818,-290.595,-316.851,-328.756,-190.442,91.500,1263.760,-2769.220
855,49143.750000,-5.384,321.771,-296.525,-299.928,-341.474,-200.571,311.500,1213.760,-2837.220
856,49143.774000,-2.447,311.652,-296.525,-257.443,-354.416,-218.044,530.500,1040.760,-2897.220
857,49143.800000,-6.363,306.593,-294.548,-241.525,-364.222,-228.158,730.500,895.760,-2909.220
858,49143.803000,-11.258,300.522,-296.525,-202.971,-377.130,-244.577,941.500,863.760,-2896.220
859,49143.819000,-13.216,293.439,-300.479,-157.560,-387.196,-263.089,1180.500,920.760,-2819.220
860,49143.843000,3.426,283.320,-306.409,-127.001,-391.331,-274.453,1426.500,1005.760,-2677.220
861,49143.860000,12.237,272.190,-325.189,-73.869,-389.859,-293.115,1696.500,899.760,-2552.220
862,49143.879000,11.258,253.976,-332.108,-58.083,-390.962,-300.284,1838.500,836.760,-2468.220
863,49143.906000,5.384,242.846,-320.247,-4.155,-384.669,-311.090,2086.500,843.760,-2279.220
864,49143.928000,10.279,235.763,-293.560,24.315,-378.147,-320.462,2326.500,1060.760,-2072.220
865,49143.950000,22.027,219.573,-266.873,80.119,-363.166,-331.311,2526.500,1266.760,-1821.220
866,49143.966000,33.774,191.241,-245.127,115.305,-344.130,-339.832,2657.500,1365.760,-1515.220
867,49143.993000,49.438,155.826,-222.394,160.201,-333.899,-339.654,2747.500,1436.760,-1216.220
868,49144.11000,62.164,125.470,-201.637,203.058,-311.072,-341.423,2761.500,1434.760,-914.220
869,49144.44000,68.038,98.150,-185.822,232.212,-302.639,-335.058,2725.500,1382.760,-589.220
870,49144.53000,73.912,71.842,-183.846,259.320,-284.514,-328.667,2705.500,1373.760,-216.220
871,49144.81000,76.849,46.545,-168.031,280.628,-277.947,-320.192,2669.500,1387.760,-31.220
872,49144.95000,72.933,23.273,-159.135,306.716,-266.591,-307.869,2569.500,1527.760,355.780
873,49144.112000,70.975,5.059,-161.112,313.434,-259.885,-304.058,2491.500,1704.760,706.780
874,49144.133000,77.828,-14.166,-149.251,331.799,-254.260,-294.545,2403.500,1796.760,1026.780
875,49144.155000,72.933,-33.391,-144.309,348.155,-250.555,-281.056,2271.500,1726.760,1210.780
876,49144.176000,62.164,-48.569,-130.471,351.930,-248.662,-274.234,2159.500,1681.760,1404.780
877,49144.194000,59.228,-63.747,-118.610,360.556,-253.592,-261.583,2009.500,1597.760,1548.780
878,49144.211000,65.101,-80.949,-104.772,365.363,-257.513,-254.772,1826.500,1359.760,1665.780
879,49144.239000,58.249,-98.150,-90.934,365.324,-272.034,-244.910,1701.500,1177.760,1714.780
880,49144.261000,34.753,-110.292,-84.015,358.416,-278.750,-237.889,1450.500,891.760,1863.780
881,49144.284000,12.237,-127.494,-83.027,345.760,-297.021,-231.737,1232.500,812.760,2002.780
882,49144.300000,8.321,-143.684,-87.969,340.008,-319.223,-226.686,1021.500,753.760,2078.780
883,49144.323000,5.384,-151.779,-88.958,334.165,-327.879,-223.620,813.500,595.760,2105.780
884,49144.344000,-21.048,-145.708,-85.004,308.875,-344.094,-223.153,628.500,488.760,2052.780
885,49144.361000,-40.627,-145.708,-85.992,303.076,-351.779,-223.042,467.500,516.760,2002.780
886,49144.384000,-45.522,-152.791,-94.888,275.847,-369.911,-222.539,334.500,490.760,1939.780
887,49144.400000,-52.375,-155.826,-98.842,264.210,-375.606,-225.279,207.500,456.760,1860.780
888,49144.426000,-56.291,-159.874,-95.876,239.906,-385.053,-228.776,149.500,445.760,1822.780
889,49144.459000,-38.669,-153.802,-98.842,235.111,-395.650,-228.679,23.500,291.760,1801.780
890,49144.486000,-45.522,-140.648,-102.795,202.036,-405.016,-233.990,-69.500,113.760,1920.780
891,49144.506000,-92.512,-124.459,-112.680,181.672,-415.466,-238.539,-124.500,415.760,2091.780
892,49144.508000,-93.491,-130.530,-101.807,161.296,-415.269,-248.024,-201.500,917.760,2006.780
893,49144.526000,-35.732,-137.613,-101.807,124.339,-416.854,-259.181,-395.500,793.760,1875.780
894,49144.549000,-39.648,-124.459,-112.680,114.632,-417.729,-262.946,-510.500,442.760,1739.780
895,49144.564000,-76.849,-114.340,-116.633,83.580,-419.365,-276.177,-592.500,729.760,1829.780
896,49144.600000,-90.554,-119.399,-90.934,67.040,-416.305,-282.779,-788.500,931.760,1729.780
897,49144.603000,-43.564,-129.518,-103.784,32.939,-409.210,-293.998,-940.500,862.760,1696.780
898,49144.624000,-40.627,-102.198,-135.413,4.528,-408.954,-291.527,-1044.500,233.760,1496.780
899,49144.646000,-86.639,-98.150,-134.425,-17.017,-404.888,-292.135,-1130.500,7.760,1347.780
900,49144.669000,-91.533,-95.115,-129.483,-40.476,-401.769,-294.677,-1294.500,200.760,1254.780
901,49144.690000,-79.786,-66.783,-164.077,-54.149,-400.675,-296.405,-1280.500,75.760,1099.780
902,49144.726000,-111.113,-49.581,-166.054,-80.708,-394.635,-291.020,-1215.500,225.760,979.780
903,49144.741000,-135.587,-54.640,-143.320,-99.205,-391.557,-297.587,-1327.500,897.760,973.780
904,49144.756000,-111.113,-43.510,-137.390,-127.638,-371.944,-303.998,-1507.500,1153.760,930.780
905,49144.776000,-92.512,-10.119,-164.077,-137.399,-365.079,-308.756,-1537.500,1123.760,901.780
906,49144.799000,-99.365,0.000,-163.089,-159.034,-347.467,-311.347,-1619.500,1076.760,889.780
907,49144.819000,-78.807,-2.024,-164.077,-194.368,-329.730,-313.696,-1881.500,979.760,956.780
908,49144.839000,-54.333,16.190,-196.695,-207.246,-323.816,-307.568,-2028.500,475.760,842.780
909,49144.850000,-95.449,71.842,-169.019,-235.944,-316.801,-292.302,-2089.500,6.760,721.780
910,49144.869000,-107.197,97.138,-176.927,-256.701,-310.818,-283.082,-2190.500,-13.240,755.780
911,49144.911000,-106.218,107.257,-194.718,-281.529,-302.873,-265.916,-2229.500,34.760,656.780
912,49144.930000,-107.197,118.387,-176.927,-291.513,-301.828,-254.912,-2281.500,-7.240,505.780
913,49144.953000,-116.008,144.696,-171.985,-319.258,-297.726,-236.705,-2369.500,72.760,427.780
914,49144.968000,-112.092,167.968,-185.822,-344.181,-286.883,-215.604,-2378.500,165.760,410.780
915,49144.988000,-103.281,178.087,-202.625,-351.283,-281.995,-203.670,-2355.500,349.760,330.780
916,49145.3000,-110.134,188.206,-195.707,-365.391,-273.183,-184.726,-2307.500,377.760,129.780
917,49145.25000,-116.008,215.526,-188.788,-376.354,-268.257,-175.678,-2299.500,541.760,24.780
918,49145.44000,-108.176,250.941,-195.707,-394.359,-255.536,-159.623,-2250.500,925.760,5.780
919,49145.53000,-74.891,272.190,-212.510,-388.671,-252.696,-150.867,-2134.500,1244.760,-40.220
920,49145.78000,-59.228,273.202,-210.533,-403.635,-245.803,-137.812,-1989.500,1228.760,-226.220
921,49145.98000,-72.933,268.142,-207.568,-410.720,-240.914,-126.864,-1864.500,1136.760,-423.220
922,49145.119000,-89.576,284.332,-226.347,-417.655,-242.793,-120.832,-1816.500,1182.760,-604.220
923,49145.141000,-87.618,293.439,-245.127,-417.811,-240.866,-112.956,-1672.500,1352.760,-728.220
924,49145.164000,-84.681,297.486,-255.012,-417.837,-241.835,-110.986,-1493.500,1422.760,-975.220
925,49145.195000,-90.554,298.498,-244.139,-412.856,-251.554,-111.062,-1295.500,1410.760,-1277.220
926,49145.218000,-88.597,307.605,-240.185,-405.953,-257.420,-111.178,-1097.500,1464.760,-1555.220
927,49145.233000,-81.744,309.628,-244.139,-393.021,-273.011,-115.326,-849.500,1532.760,-1786.220
928,49145.250000,-72.933,302.545,-238.208,-381.060,-283.752,-122.416,-629.500,1579.760,-1974.220
929,49145.268000,-62.164,301.534,-234.255,-373.975,-292.512,-131.391,-464.500,1605.760,-2168.220
930,49145.295000,-59.228,303.557,-230.301,-351.049,-312.051,-145.556,-326.500,1615.760,-2358.220
931,49145.310000,-46.501,307.605,-242.162,-334.162,-320.899,-155.689,-268.500,1609.760,-2423.220
932,49145.333000,-33.774,309.628,-249.081,-309.245,-340.454,-171.859,-121.500,1513.760,-2545.220
933,49145.353000,-29.859,303.557,-256.000,-294.340,-350.254,-179.987,44.500,1358.760,-2619.220
934,49145.389000,-31.816,294.451,-256.988,-266.506,-364.029,-198.183,225.500,1296.760,-2619.220
935,49145.418000,-17.132,282.308,-261.931,-251.586,-368.021,-210.256,415.500,1280.760,-2591.220
936,49145.421000,-8.321,270.166,-267.861,-208.096,-380.002,-229.716,614.500,1170.760,-2604.220
937,49145.440000,-18.111,259.036,-265.884,-193.228,-383.997,-238.834,786.500,1080.760,-2578.220
938,49145.455000,-14.195,250.941,-263.907,-151.714,-392.090,-259.248,952.500,1140.760,-2501.220
939,49145.483000,-5.384,241.834,-261.931,-114.238,-390.476,-277.633,1132.500,1161.760,-2397.220
940,49145.493000,1.468,222.609,-259.954,-93.508,-389.685,-288.830,1212.500,1166.760,-2318.220
941,49145.506000,1.468,202.372,-261.931,-56.050,-382.264,-309.191,1369.500,1179.760,-2137.220
942,49145.533000,16.153,184.158,-275.768,-27.598,-375.742,-317.577,1498.500,1181.760,-1942.220
943,49145.555000,37.690,169.992,-286.641,10.665,-366.405,-329.094,1624.500,1003.760,-1776.220
944,49145.573000,53.354,157.850,-293.560,31.307,-363.682,-336.354,1726.500,736.760,-1577.220
945,49145.600000,42.585,148.743,-297.514,72.341,-353.413,-339.061,1870.500,578.760,-1330.220
946,49145.615000,31.816,134.577,-282.687,114.406,-347.020,-342.766,1999.500,724.760,-1063.220
947,49145.638000,32.795,124.459,-273.792,128.033,-337.470,-344.003,2121.500,936.760,-788.220
948,49145.660000,51.396,105.233,-261.931,159.262,-321.305,-348.512,2169.500,1017.760,-650.220
949,49145.678000,61.185,93.091,-256.988,177.749,-317.608,-344.905,2214.500,1007.760,-435.220
950,49145.714000,62.164,73.866,-240.185,212.800,-310.195,-339.628,2248.500,965.760,-232.220
951,49145.717000,50.417,64.759,-239.197,232.220,-299.735,-337.030,2267.500,978.760,0.780
952,49145.746000,51.396,51.605,-229.313,252.516,-293.160,-326.568,2309.500,1062.760,230.780
953,49145.761000,49.438,32.379,-219.429,264.091,-286.501,-320.874,2308.500,1058.760,447.780
954,49145.789000,31.816,11.130,-198.672,285.410,-282.837,-311.411,2263.500,1154.760,699.780
955,49145.808000,27.901,0.000,-186.811,306.702,-278.206,-300.964,2221.500,1295.760,964.780
956,49145.836000,32.795,-20.237,-164.077,310.547,-280.182,-296.107,2116.500,1325.760,1145.780
957,49145.841000,30.837,-34.403,-137.390,323.155,-281.272,-289.438,2027.500,1308.760,1237.780
958,49145.860000,21.048,-49.581,-139.367,317.163,-281.225,-282.441,1831.500,1225.760,1409.780
959,49145.883000,23.985,-64.759,-128.494,323.918,-284.196,-275.665,1716.500,1205.760,1482.780
960,49145.904000,23.006,-80.949,-119.598,327.712,-288.110,-266.868,1488.500,1041.760,1515.780
961,49145.925000,22.027,-94.103,-122.564,324.814,-301.632,-261.879,1319.500,882.760,1572.780
962,49145.944000,15.174,-105.233,-121.575,314.997,-311.224,-254.803,1140.500,715.760,1614.780
963,49145.963000,8.321,-110.292,-120.587,309.171,-316.008,-254.694,1006.500,619.760,1666.780
964,49145.990000,5.384,-117.375,-112.680,303.399,-332.403,-251.619,864.500,470.760,1684.780
965,49146.10000,-2.447,-126.482,-111.691,289.729,-340.988,-248.414,779.500,382.760,1696.780
966,49146.33000,-23.006,-128.506,-124.541,276.041,-351.510,-243.237,651.500,285.760,1712.780
967,49146.55000,-31.816,-130.530,-116.633,272.208,-362.117,-242.172,553.500,352.760,1712.780
968,49146.68000,-34.753,-130.530,-109.714,254.744,-370.659,-245.791,406.500,426.760,1743.780
969,49146.90000,-31.816,-130.530,-108.726,239.098,-375.356,-243.540,257.500,415.760,1741.780
970,49146.113000,-29.859,-134.577,-115.645,215.808,-388.682,-247.050,104.500,337.760,1748.780
971,49146.135000,-37.690,-131.542,-119.598,190.473,-396.188,-248.562,-13.500,386.760,1794.780
972,49146.158000,-37.690,-124.459,-117.622,184.777,-401.932,-255.346,-114.500,488.760,1864.780
973,49146.176000,-39.648,-115.352,-122.564,149.638,-403.543,-258.660,-192.500,486.760,1861.780
974,49146.219000,-35.732,-125.470,-132.448,140.998,-412.165,-263.419,-250.500,422.760,1847.780
975,49146.223000,-44.543,-118.387,-140.355,112.708,-411.902,-267.841,-324.500,334.760,1841.780
976,49146.241000,-55.312,-106.245,-136.402,91.337,-411.697,-276.324,-408.500,488.760,1909.780
977,49146.259000,-62.164,-99.162,-139.367,65.022,-411.451,-281.765,-496.500,589.760,1914.780
978,49146.300000,-47.480,-121.423,-136.402,34.767,-414.075,-284.180,-678.500,337.760,1774.780
979,49146.313000,-47.480,-103.209,-142.332,23.069,-414.933,-285.941,-801.500,68.760,1669.780
980,49146.321000,-78.807,-70.830,-148.263,-6.253,-410.793,-289.365,-817.500,244.760,1755.780
981,49146.335000,-93.491,-65.771,-143.320,-29.755,-404.773,-290.925,-836.500,695.760,1892.780
982,49146.366000,-56.291,-69.818,-128.494,-69.790,-392.789,-301.060,-887.500,822.760,1787.780
983,49146.385000,-61.185,-33.391,-148.263,-81.490,-387.840,-305.781,-1102.500,671.760,1684.780
984,49146.404000,-92.512,-5.059,-164.077,-115.869,-376.889,-303.216,-1227.500,336.760,1582.780
985,49146.426000,-116.008,-3.036,-145.297,-130.557,-369.981,-305.918,-1248.500,462.760,1691.780
986,49146.444000,-93.491,-6.071,-138.378,-161.985,-353.248,-307.350,-1331.500,885.760,1648.780
987,49146.466000,-72.933,2.024,-161.112,-193.388,-335.546,-310.753,-1508.500,889.760,1477.780
988,49146.481000,-79.786,19.225,-178.903,-215.082,-326.649,-305.458,-1660.500,496.760,1215.780
989,49146.504000,-91.533,45.534,-180.880,-237.797,-316.777,-298.176,-1771.500,357.760,1077.780
990,49146.520000,-112.092,82.972,-173.961,-252.658,-307.943,-292.017,-1810.500,573.760,1047.780
991,49146.542000,-111.113,98.150,-169.019,-284.270,-286.381,-285.576,-1788.500,748.760,1025.780
992,49146.563000,-84.681,98.150,-177.915,-297.105,-277.561,-283.390,-1801.500,1068.760,959.780
993,49146.585000,-59.228,106.245,-201.637,-322.879,-259.926,-273.110,-1952.500,1040.760,715.780
994,49146.608000,-54.333,131.542,-207.568,-341.846,-245.259,-259.010,-2103.500,690.760,431.780
995,49146.628000,-74.891,173.028,-201.637,-354.784,-238.381,-249.929,-2161.500,500.760,362.780
996,49146.650000,-93.491,201.360,-191.753,-371.863,-225.672,-230.937,-2092.500,685.760,366.780
997,49146.664000,-72.933,201.360,-197.683,-381.875,-217.852,-221.909,-2005.500,1018.760,363.780
998,49146.695000,-53.354,195.289,-214.486,-396.910,-203.220,-208.862,-1995.500,980.760,108.780
999,49146.701000,-50.417,217.549,-211.521,-404.973,-200.259,-196.909,-2048.500,728.760,-159.220
1000,49146.724000,-67.059,253.976,-193.730,-418.024,-192.419,-181.921,-2063.500,723.760,-217.220
