Sample, Time, ACCX, ACCY, ACCZ, MAGX, MAGY, MAGZ, GYRX, GYRY, GYRZ
0,49071.673000,-59.228,-32.379,-238.208,97.168,-390.459,-285.312,-21.500,-14.240,19.780
1,49071.694000,-58.249,-31.368,-241.174,100.104,-390.486,-285.364,-12.500,-13.240,18.780
2,49071.713000,-58.249,-32.379,-238.208,99.108,-392.413,-283.375,-10.500,-30.240,24.780
3,49071.733000,-60.207,-32.379,-236.232,102.078,-390.502,-286.383,-8.500,-34.240,23.780
4,49071.754000,-62.164,-32.379,-236.232,97.176,-389.491,-286.297,-6.500,-25.240,33.780
5,49071.777000,-61.185,-32.379,-236.232,93.272,-394.294,-284.254,-1.500,-2.240,28.780
6,49071.803000,-60.207,-35.415,-233.266,100.078,-391.455,-283.393,0.500,0.760,21.780
7,49071.826000,-60.207,-34.403,-232.278,95.255,-391.407,-287.246,-11.500,-6.240,7.780
8,49071.843000,-60.207,-32.379,-233.266,96.199,-391.417,-285.293,-18.500,-2.240,-0.220
9,49071.865000,-58.249,-31.368,-234.255,97.194,-391.425,-286.295,-23.500,-10.240,-3.220
10,49071.883000,-60.207,-31.368,-233.266,97.142,-389.492,-284.328,-24.500,-27.240,-2.220
11,49071.912000,-64.122,-30.356,-233.266,92.328,-392.347,-287.193,-19.500,-23.240,7.780
12,49071.939000,-60.207,-30.356,-233.266,95.228,-390.440,-286.262,-15.500,15.760,14.780
13,49071.953000,-57.270,-34.403,-233.266,99.177,-392.410,-287.314,-16.500,34.760,16.780
14,49071.993000,-55.312,-34.403,-234.255,96.199,-391.417,-285.293,-29.500,10.760,4.780
15,49072.12000,-57.270,-33.391,-234.255,90.363,-393.298,-286.172,-38.500,-17.240,0.780
16,49072.18000,-58.249,-33.391,-233.266,90.388,-392.329,-288.143,-40.500,-11.240,0.780
17,49072.34000,-61.185,-31.368,-234.255,99.134,-393.380,-284.359,-35.500,10.760,7.780
18,49072.55000,-59.228,-32.379,-236.232,95.290,-393.340,-288.228,-34.500,39.760,17.780
19,49072.78000,-55.312,-32.379,-235.243,90.293,-391.366,-283.220,-32.500,42.760,26.780
20,49072.104000,-55.312,-32.379,-236.232,97.220,-390.456,-288.266,-37.500,27.760,22.780
21,49072.127000,-59.228,-30.356,-238.208,96.189,-388.514,-286.281,-41.500,-10.240,19.780
22,49072.147000,-59.228,-32.379,-239.197,100.173,-390.482,-289.303,-37.500,-5.240,13.780
23,49072.162000,-60.207,-30.356,-237.220,87.417,-388.432,-288.095,-33.500,25.760,22.780
24,49072.184000,-56.291,-30.356,-236.232,94.320,-392.363,-289.197,-24.500,42.760,35.780
25,49072.199000,-56.291,-31.368,-237.220,93.297,-389.453,-288.198,-25.500,27.760,35.780
26,49072.217000,-57.270,-30.356,-236.232,94.345,-391.394,-291.167,-24.500,21.760,35.780
27,49072.243000,-56.291,-32.379,-233.266,88.422,-391.343,-288.109,-30.500,17.760,38.780
28,49072.259000,-57.270,-30.356,-233.266,89.367,-393.290,-285.170,-35.500,11.760,43.780
29,49072.282000,-59.228,-29.344,-234.255,87.461,-389.398,-290.063,-38.500,15.760,44.780
30,49072.304000,-57.270,-29.344,-234.255,83.590,-388.392,-292.949,-41.500,36.760,48.780
31,49072.319000,-57.270,-29.344,-234.255,85.556,-391.313,-291.996,-54.500,22.760,36.780
32,49072.353000,-56.291,-28.332,-233.266,86.508,-390.355,-291.030,-65.500,8.760,24.780
33,49072.367000,-59.228,-26.308,-234.255,81.615,-386.439,-292.917,-75.500,11.760,19.780
34,49072.386000,-57.270,-27.320,-234.255,81.563,-386.442,-289.963,-65.500,20.760,35.780
35,49072.394000,-59.228,-29.344,-233.266,86.569,-389.384,-294.970,-67.500,53.760,37.780
36,49072.419000,-56.291,-26.308,-237.220,83.651,-391.292,-294.916,-70.500,73.760,42.780
37,49072.442000,-54.333,-24.285,-237.220,81.632,-384.502,-294.888,-75.500,51.760,38.780
38,49072.462000,-53.354,-23.273,-236.232,79.641,-386.422,-291.897,-80.500,33.760,30.780
39,49072.482000,-58.249,-22.261,-240.185,78.766,-386.408,-297.789,-87.500,-5.240,22.780
40,49072.504000,-56.291,-20.237,-243.151,76.792,-386.391,-296.769,-81.500,3.760,19.780
41,49072.527000,-55.312,-20.237,-243.151,74.826,-385.406,-296.736,-65.500,4.760,30.780
42,49072.544000,-56.291,-21.249,-242.162,77.875,-388.330,-301.709,-57.500,9.760,27.780
43,49072.567000,-57.270,-19.225,-245.127,77.797,-389.302,-296.784,-39.500,23.760,24.780
44,49072.589000,-56.291,-21.249,-248.093,74.905,-388.305,-299.687,-21.500,39.760,20.780
45,49072.618000,-54.333,-18.213,-246.116,69.977,-388.262,-297.631,-11.500,25.760,23.780
46,49072.633000,-54.333,-17.202,-246.116,76.888,-389.289,-300.705,-5.500,8.760,28.780
47,49072.648000,-55.312,-16.190,-246.116,73.830,-385.398,-295.734,7.500,-9.240,30.780
48,49072.670000,-56.291,-16.190,-243.151,71.917,-386.345,-297.668,17.500,3.760,32.780
49,49072.690000,-56.291,-16.190,-242.162,73.848,-387.332,-295.732,20.500,3.760,23.780
50,49072.713000,-58.249,-15.178,-241.174,74.896,-389.273,-298.701,26.500,7.760,23.780
51,49072.736000,-55.312,-18.213,-242.162,76.844,-388.324,-298.737,32.500,18.760,28.780
52,49072.757000,-55.312,-18.213,-240.185,71.025,-388.267,-301.587,34.500,5.760,30.780
53,49072.773000,-54.333,-17.202,-237.220,79.789,-389.318,-298.788,39.500,-18.240,23.780
54,49072.799000,-56.291,-18.213,-236.232,72.920,-383.449,-300.642,36.500,-10.240,14.780
55,49072.818000,-58.249,-19.225,-238.208,78.792,-385.438,-299.759,34.500,1.760,10.780
56,49072.837000,-56.291,-21.249,-236.232,75.812,-382.510,-298.725,26.500,13.760,0.780
57,49072.854000,-55.312,-22.261,-234.255,69.042,-389.219,-299.582,15.500,3.760,-12.220
58,49072.876000,-59.228,-20.237,-235.243,77.813,-385.429,-299.742,9.500,9.760,-17.220
59,49072.918000,-56.291,-21.249,-234.255,74.939,-388.303,-301.657,7.500,27.760,-19.220
60,49072.919000,-55.312,-22.261,-236.232,70.938,-384.401,-298.637,2.500,12.760,-23.220
61,49072.944000,-55.312,-22.261,-234.255,74.896,-387.337,-299.688,-10.500,-7.240,-23.220
62,49072.951000,-56.291,-23.273,-236.232,78.739,-383.505,-297.792,-15.500,0.760,-20.220
63,49072.978000,-55.312,-22.261,-239.197,73.890,-384.426,-299.674,-8.500,8.760,-27.220
64,49072.996000,-55.312,-22.261,-238.208,71.889,-381.507,-298.657,-8.500,16.760,-29.220
65,49073.18000,-55.312,-23.273,-238.208,78.817,-384.469,-301.730,-10.500,23.760,-30.220
66,49073.41000,-53.354,-22.261,-239.197,78.791,-383.502,-300.746,-8.500,13.760,-32.220
67,49073.58000,-52.375,-18.213,-240.185,74.817,-382.502,-297.723,-12.500,-4.240,-35.220
68,49073.81000,-55.312,-19.225,-239.197,72.912,-384.417,-299.656,-9.500,-13.240,-33.220
69,49073.103000,-56.291,-20.237,-240.185,74.869,-384.435,-299.691,-1.500,13.760,-28.220
70,49073.123000,-54.333,-21.249,-238.208,77.787,-382.527,-299.745,3.500,48.760,-18.220
71,49073.141000,-51.396,-22.261,-239.197,75.839,-385.413,-298.723,4.500,38.760,-16.220
72,49073.163000,-54.333,-20.237,-239.197,79.726,-382.546,-298.795,3.500,12.760,-22.220
73,49073.181000,-56.291,-21.249,-238.208,80.705,-384.491,-297.825,2.500,-13.240,-22.220
74,49073.203000,-55.312,-23.273,-239.197,80.783,-383.518,-302.750,3.500,7.760,-15.220
75,49073.231000,-52.375,-22.261,-239.197,73.838,-382.493,-297.706,3.500,15.760,-15.220
76,49073.257000,-53.354,-20.237,-238.208,77.830,-383.493,-301.713,-1.500,-4.240,-25.220
77,49073.271000,-54.333,-22.261,-237.220,82.661,-380.637,-299.833,-3.500,-1.240,-25.220
78,49073.288000,-53.354,-23.273,-237.220,84.645,-383.557,-299.865,-5.500,13.760,-26.220
79,49073.308000,-54.333,-22.261,-237.220,77.821,-382.525,-301.714,-12.500,22.760,-33.220
80,49073.328000,-52.375,-22.261,-237.220,79.787,-383.510,-301.748,-15.500,15.760,-37.220
81,49073.346000,-52.375,-24.285,-237.220,75.847,-382.508,-300.695,-17.500,9.760,-38.220
82,49073.367000,-52.375,-23.273,-239.197,82.706,-385.474,-299.828,-23.500,-4.240,-39.220
83,49073.383000,-52.375,-23.273,-240.185,75.908,-383.473,-303.648,-21.500,-4.240,-35.220
84,49073.411000,-52.375,-23.273,-239.197,78.791,-381.567,-301.733,-19.500,-1.240,-31.220
85,49073.428000,-52.375,-23.273,-241.174,83.727,-382.577,-303.788,-20.500,4.760,-25.220
86,49073.452000,-52.375,-23.273,-241.174,76.904,-383.481,-304.650,-18.500,13.760,-23.220
87,49073.472000,-51.396,-23.273,-242.162,79.804,-383.509,-302.733,-15.500,1.760,-31.220
88,49073.494000,-53.354,-22.261,-241.174,74.868,-380.564,-301.664,-13.500,-4.240,-29.220
89,49073.514000,-52.375,-22.261,-242.162,78.834,-382.532,-303.701,-5.500,1.760,-23.220
90,49073.532000,-52.375,-23.273,-240.185,81.744,-381.592,-302.769,-5.500,0.760,-23.220
91,49073.554000,-52.375,-21.249,-241.174,82.705,-381.602,-301.802,-1.500,-8.240,-20.220
92,49073.580000,-53.354,-21.249,-240.185,82.757,-383.535,-303.769,6.500,-10.240,-13.220
93,49073.599000,-53.354,-23.273,-239.197,77.890,-382.521,-305.653,11.500,-0.240,-8.220
94,49073.617000,-52.375,-23.273,-237.220,83.719,-385.481,-301.815,14.500,-1.240,-3.220
95,49073.633000,-52.375,-23.273,-239.197,82.774,-383.534,-304.754,12.500,-18.240,-2.220
96,49073.663000,-51.396,-22.261,-239.197,83.657,-380.645,-300.835,7.500,-18.240,-10.220
97,49073.677000,-53.354,-21.249,-237.220,80.748,-383.520,-300.781,5.500,-25.240,-15.220
98,49073.706000,-54.333,-22.261,-239.197,88.567,-382.624,-300.920,6.500,-23.240,-10.220
99,49073.709000,-53.354,-23.273,-238.208,84.619,-382.590,-298.881,8.500,-1.240,-3.220
100,49073.742000,-52.375,-22.261,-240.185,82.748,-382.568,-303.770,10.500,4.760,0.780
101,49073.757000,-52.375,-22.261,-239.197,78.773,-381.568,-300.748,8.500,-21.240,-7.220
102,49073.779000,-56.291,-22.261,-238.208,87.589,-382.615,-300.903,9.500,-24.240,-9.220
103,49073.802000,-55.312,-22.261,-240.185,79.727,-384.482,-297.808,11.500,-2.240,-5.220
104,49073.819000,-57.270,-178.087,-211.521,74.784,-390.247,-291.807,-22.500,-1062.240,414.780
105,49073.837000,-111.113,-64.759,-240.185,73.687,-399.924,-279.963,-88.500,-687.240,-150.220
106,49073.863000,-163.977,-29.344,-256.988,74.732,-392.186,-287.866,111.500,712.760,-117.220
107,49073.883000,-99.365,-25.296,-244.139,80.731,-383.521,-299.796,206.500,1214.760,-56.220
108,49073.908000,28.880,-50.593,-227.336,77.889,-376.714,-308.614,-43.500,1130.760,-22.220
109,49073.926000,8.321,12.142,-239.197,82.747,-376.760,-306.731,-152.500,-181.240,-244.220
110,49073.946000,-58.249,1.012,-256.000,83.675,-384.515,-299.847,-84.500,-586.240,-92.220
111,49073.968000,-75.870,-28.332,-254.023,80.696,-381.587,-298.813,-5.500,-253.240,-12.220
112,49073.988000,-63.143,-20.237,-247.104,79.657,-380.614,-295.842,22.500,-18.240,-23.220
113,49074.6000,-51.396,-19.225,-241.174,83.649,-383.549,-298.863,41.500,7.760,-9.220
114,49074.28000,-52.375,-21.249,-244.139,85.607,-385.503,-297.911,45.500,48.760,-4.220
115,49074.46000,-52.375,-19.225,-242.162,85.572,-383.569,-296.928,47.500,76.760,18.780
116,49074.68000,-51.396,-21.249,-237.220,78.740,-385.441,-296.805,50.500,79.760,31.780
117,49074.93000,-49.438,-25.296,-234.255,79.796,-386.414,-300.760,52.500,41.760,27.780
118,49074.108000,-50.417,-24.285,-236.232,82.696,-382.571,-300.816,47.500,-19.240,19.780
119,49074.144000,-50.417,-24.285,-234.255,82.705,-383.538,-300.815,34.500,-37.240,23.780
120,49074.172000,-52.375,-22.261,-233.266,87.493,-381.653,-295.980,18.500,-56.240,29.780
121,49074.182000,-56.291,-23.273,-234.255,86.646,-388.412,-299.895,12.500,-54.240,24.780
122,49074.200000,-59.228,-25.296,-236.232,86.638,-387.444,-299.896,17.500,2.760,17.780
123,49074.214000,-58.249,-24.285,-238.208,81.702,-386.434,-297.841,22.500,45.760,21.780
124,49074.239000,-53.354,-22.261,-239.197,83.624,-386.454,-295.906,-266.500,34.760,-59.220
125,49074.257000,-73.912,-195.289,-219.429,80.638,-390.302,-290.926,331.500,-740.240,424.780
126,49074.273000,-35.732,-53.628,-219.429,81.627,-399.021,-286.996,-206.500,-720.240,-64.220
127,49074.299000,-103.281,-42.498,-237.220,75.695,-398.003,-283.938,-207.500,-357.240,-125.220
128,49074.314000,-114.050,-24.285,-242.162,77.686,-394.148,-287.916,-62.500,313.760,-90.220
129,49074.337000,-88.597,-18.213,-248.093,77.718,-386.403,-293.832,62.500,706.760,-28.220
130,49074.354000,-39.648,18.213,-240.185,75.865,-384.443,-300.693,106.500,473.760,18.780
131,49074.369000,-28.880,-14.166,-243.151,74.833,-380.566,-299.695,-36.500,13.760,-3.220
132,49074.393000,-44.543,-26.308,-256.000,80.731,-385.457,-298.809,-25.500,-146.240,-29.220
133,49074.419000,-57.270,-17.202,-256.988,83.641,-384.517,-297.877,-4.500,-131.240,-21.220
134,49074.438000,-58.249,-16.190,-249.081,77.823,-388.333,-298.754,24.500,-84.240,-8.220
135,49074.460000,-60.207,-18.213,-246.116,77.796,-383.495,-299.744,38.500,-17.240,2.780
136,49074.478000,-59.228,-17.202,-244.139,84.637,-384.525,-298.879,54.500,55.760,16.780
137,49074.501000,-55.312,-17.202,-241.174,84.672,-388.395,-298.875,65.500,92.760,21.780
138,49074.521000,-53.354,-19.225,-239.197,78.714,-384.475,-295.821,63.500,64.760,20.780
139,49074.529000,-52.375,-21.249,-237.220,86.550,-383.578,-296.945,53.500,3.760,10.780
140,49074.558000,-53.354,-20.237,-235.243,81.693,-385.467,-297.842,48.500,-31.240,6.780
141,49074.590000,-55.312,-21.249,-235.243,81.675,-383.532,-297.844,38.500,-44.240,15.780
142,49074.606000,-55.312,-22.261,-236.232,77.735,-384.466,-295.804,35.500,-43.240,18.780
143,49074.622000,-111.113,-39.462,-215.475,83.659,-386.452,-297.875,34.500,-23.240,13.780
144,49074.648000,-128.734,-218.561,-216.463,82.516,-389.356,-287.023,-140.500,-620.240,324.780
145,49074.663000,-71.954,-43.510,-233.266,78.631,-398.030,-283.990,-334.500,-443.240,64.780
146,49074.686000,-112.092,-29.344,-239.197,74.630,-396.064,-279.984,-113.500,-352.240,-97.220
147,49074.703000,-87.618,-26.308,-233.266,78.691,-398.995,-286.944,-41.500,301.760,-38.220
148,49074.726000,-67.059,-16.190,-235.243,80.612,-393.207,-287.969,-19.500,508.760,-76.220
149,49074.748000,-54.333,-18.213,-248.093,79.719,-387.386,-295.836,23.500,456.760,-53.220
150,49074.769000,-42.585,-1.012,-248.093,76.818,-387.357,-297.753,25.500,385.760,-41.220
151,49074.784000,-46.501,-14.166,-248.093,78.757,-385.440,-297.790,22.500,107.760,-48.220
152,49074.806000,-53.354,-21.249,-248.093,79.744,-382.545,-299.779,-2.500,-78.240,-18.220
153,49074.828000,-62.164,-19.225,-248.093,82.671,-385.476,-297.859,6.500,-111.240,-38.220
154,49074.851000,-60.207,-20.237,-244.139,76.782,-383.488,-297.757,36.500,0.760,-18.220
155,49074.871000,-54.333,-19.225,-241.174,83.641,-384.517,-297.877,44.500,71.760,-5.220
156,49074.888000,-51.396,-18.213,-237.220,86.612,-388.414,-297.925,43.500,45.760,-6.220
157,49074.905000,-52.375,-21.249,-236.232,78.748,-384.473,-297.791,37.500,-1.240,-15.220
158,49074.928000,-53.354,-23.273,-236.232,80.697,-387.395,-295.853,36.500,-7.240,-1.220
159,49074.950000,-53.354,-21.249,-236.232,84.593,-383.560,-296.911,34.500,-6.240,5.780
160,49074.973000,-54.333,-21.249,-236.232,81.692,-383.531,-298.828,32.500,-12.240,10.780
161,49074.991000,-55.312,-23.273,-234.255,85.624,-387.437,-297.909,26.500,-35.240,5.780
162,49075.11000,-57.270,-23.273,-235.243,79.684,-387.388,-293.866,21.500,-23.240,0.780
163,49075.58000,-108.176,-7.083,-38.548,77.763,-393.175,-292.841,18.500,13.760,0.780
164,49075.67000,-137.545,-216.538,-215.475,75.565,-395.107,-278.033,265.500,-1236.240,276.780
165,49075.81000,-60.207,-47.557,-229.313,77.516,-407.708,-271.161,-154.500,-1010.240,59.780
166,49075.96000,-131.671,-46.545,-241.174,77.481,-405.774,-270.179,-203.500,-300.240,-205.220
167,49075.117000,-128.734,-27.320,-251.058,75.567,-404.786,-273.099,-52.500,514.760,-223.220
168,49075.138000,-103.281,-12.142,-255.012,76.587,-398.017,-279.032,21.500,887.760,-230.220
169,49075.158000,-33.774,22.261,-241.174,78.715,-388.346,-293.848,112.500,1104.760,-76.220
170,49075.176000,-17.132,-12.142,-247.104,76.827,-388.325,-297.752,68.500,486.760,4.780
171,49075.201000,-39.648,-26.308,-258.965,78.784,-390.278,-296.800,13.500,-26.240,-20.220
172,49075.214000,-51.396,-17.202,-255.012,76.766,-387.360,-294.799,39.500,-143.240,-20.220
173,49075.242000,-56.291,-18.213,-246.116,84.664,-389.363,-297.890,67.500,-141.240,8.780
174,49075.264000,-61.185,-23.273,-241.174,82.568,-389.353,-289.977,71.500,-92.240,16.780
175,49075.279000,-64.122,-19.225,-239.197,80.602,-388.368,-289.943,82.500,20.760,30.780
176,49075.302000,-60.207,-21.249,-236.232,85.538,-389.378,-291.998,88.500,75.760,31.780
177,49075.319000,-56.291,-24.285,-233.266,81.588,-383.537,-292.920,83.500,119.760,30.780
178,49075.347000,-50.417,-25.296,-232.278,84.655,-388.396,-297.891,69.500,68.760,17.780
179,49075.362000,-51.396,-25.296,-232.278,85.530,-388.411,-291.999,51.500,-37.240,6.780
180,49075.400000,-55.312,-24.285,-232.278,81.651,-390.309,-292.913,36.500,-88.240,10.780
181,49075.418000,-59.228,-23.273,-231.290,83.529,-387.427,-289.996,26.500,-85.240,13.780
182,49075.432000,-61.185,-25.296,-232.278,84.577,-389.368,-292.966,20.500,-35.240,7.780
183,49075.448000,-61.185,-27.320,-233.266,87.469,-388.429,-291.049,16.500,10.760,-8.220
184,49075.478000,-58.249,-27.320,-234.255,87.487,-390.364,-291.047,6.500,27.760,-9.220
185,49075.487000,-53.354,-26.308,-234.255,91.427,-391.366,-292.100,1.500,18.760,-6.220
186,49075.509000,-53.354,-26.308,-233.266,89.418,-389.415,-290.098,-12.500,-42.240,-6.220
187,49075.518000,-58.249,-23.273,-237.220,89.382,-385.546,-290.102,-19.500,-85.240,-7.220
188,49075.549000,-61.185,-23.273,-239.197,83.547,-391.298,-289.008,-11.500,-66.240,-5.220
189,49075.573000,-61.185,-23.273,-237.220,88.413,-388.440,-289.097,-0.500,-23.240,4.780
190,49075.596000,-60.207,-23.273,-238.208,88.431,-392.311,-288.108,3.500,4.760,10.780
191,49075.614000,-57.270,-23.273,-238.208,79.686,-393.195,-290.906,8.500,9.760,11.780
192,49075.634000,-58.249,-23.273,-238.208,85.504,-391.316,-289.042,6.500,-15.240,3.780
193,49075.652000,-60.207,-23.273,-238.208,88.475,-395.212,-289.090,6.500,-32.240,4.780
194,49075.669000,-63.143,-22.261,-236.232,84.516,-388.404,-290.012,10.500,-28.240,7.780
195,49075.692000,-64.122,-23.273,-237.220,80.620,-388.367,-290.928,17.500,-8.240,12.780
196,49075.718000,-62.164,-23.273,-234.255,87.435,-390.367,-288.093,18.500,-8.240,-1.220
197,49075.740000,-62.164,-25.296,-234.255,88.449,-392.310,-289.093,10.500,-40.240,-15.220
198,49075.761000,-69.996,-25.296,-238.208,83.478,-389.366,-286.055,10.500,-34.240,-27.220
199,49075.788000,-72.933,-24.285,-239.197,94.268,-392.366,-286.243,13.500,1.760,-35.220
200,49075.791000,-69.996,-25.296,-237.220,89.392,-390.385,-288.128,14.500,18.760,-46.220
201,49075.827000,-69.996,-24.285,-238.208,87.479,-393.268,-289.075,9.500,10.760,-65.220
202,49075.855000,-68.038,-22.261,-237.220,89.375,-390.386,-287.143,8.500,11.760,-87.220
203,49075.869000,-66.080,-21.249,-236.232,89.393,-392.321,-287.141,9.500,-2.240,-92.220
204,49075.884000,-61.185,-23.273,-237.220,94.372,-394.296,-291.164,2.500,-18.240,-104.220
205,49075.904000,-61.185,-24.285,-235.243,88.457,-391.341,-290.079,4.500,-8.240,-100.220
206,49075.922000,-62.164,-25.296,-235.243,88.422,-389.408,-289.096,8.500,26.760,-91.220
207,49075.938000,-58.249,-28.332,-235.243,97.237,-388.519,-290.237,10.500,30.760,-83.220
208,49075.962000,-56.291,-28.332,-238.208,97.246,-391.422,-289.250,8.500,-0.240,-100.220
209,49075.979000,-53.354,-26.308,-240.185,97.220,-390.456,-288.266,4.500,-47.240,-116.220
210,49076.1000,-53.354,-25.296,-239.197,100.164,-391.450,-288.317,5.500,-58.240,-114.220
211,49076.22000,-54.333,-26.308,-236.232,101.133,-386.620,-290.309,6.500,-41.240,-102.220
212,49076.46000,-55.312,-30.356,-232.278,98.225,-391.431,-289.267,10.500,5.760,-59.220
213,49076.66000,-51.396,-29.344,-231.290,98.181,-390.466,-287.298,21.500,53.760,-9.220
214,49076.86000,-50.417,-29.344,-232.278,97.229,-391.423,-288.265,17.500,50.760,15.780
215,49076.102000,-55.312,-32.379,-237.220,97.228,-389.488,-289.252,3.500,-6.240,11.780
216,49076.129000,-64.122,-32.379,-244.139,93.314,-389.452,-289.182,-15.500,-43.240,-5.220
217,49076.149000,-78.807,-30.356,-254.023,96.206,-388.513,-287.266,-18.500,-41.240,-38.220
218,49076.164000,-104.260,-27.320,-265.884,103.030,-387.609,-286.403,-15.500,-26.240,-81.220
219,49076.194000,-115.029,-23.273,-278.734,99.186,-391.441,-288.300,36.500,27.760,-141.220
220,49076.203000,-121.881,-18.213,-283.676,107.922,-387.654,-286.490,79.500,12.760,-192.220
221,49076.245000,-126.776,-13.154,-282.687,104.052,-390.519,-287.402,162.500,-101.240,-310.220
222,49076.268000,-133.629,-14.166,-273.792,111.785,-389.628,-282.618,238.500,-231.240,-399.220
223,49076.282000,-138.524,-16.190,-271.815,120.653,-394.544,-283.753,286.500,-309.240,-506.220
224,49076.286000,-137.545,-14.166,-272.803,133.199,-390.798,-276.104,316.500,-337.240,-649.220
225,49076.308000,-134.608,-17.202,-274.780,146.812,-390.927,-271.423,350.500,-360.240,-801.220
226,49076.331000,-127.755,-18.213,-279.722,156.450,-391.992,-262.732,375.500,-363.240,-937.220
227,49076.348000,-115.029,-17.202,-283.676,176.937,-389.279,-261.129,423.500,-342.240,-1046.220
228,49076.372000,-107.197,-18.213,-286.641,182.713,-390.306,-255.323,459.500,-346.240,-1137.220
229,49076.394000,-107.197,-24.285,-287.629,203.008,-381.796,-245.847,527.500,-357.240,-1183.220
230,49076.417000,-92.512,-24.285,-286.641,219.521,-380.018,-240.235,609.500,-218.240,-1257.220
231,49076.434000,-69.996,-23.273,-281.699,239.929,-372.469,-236.667,716.500,-65.240,-1309.220
232,49076.452000,-53.354,-31.368,-267.861,246.628,-361.893,-233.845,812.500,-44.240,-1334.220
233,49076.474000,-36.711,-38.451,-255.012,276.710,-357.344,-222.569,901.500,-25.240,-1311.220
234,49076.512000,-24.964,-49.581,-241.174,304.867,-348.903,-215.201,967.500,-69.240,-1264.220
235,49076.519000,-26.922,-57.676,-226.347,315.439,-343.204,-207.519,992.500,-77.240,-1216.220
236,49076.534000,-28.880,-64.759,-213.498,336.694,-330.832,-199.050,1036.500,57.760,-1127.220
237,49076.553000,-23.006,-69.818,-196.695,352.184,-324.209,-193.425,1051.500,155.760,-1083.220
238,49076.575000,-24.964,-86.008,-180.880,371.431,-313.758,-180.980,1060.500,297.760,-1000.220
239,49076.598000,-23.006,-103.209,-166.054,379.049,-304.162,-174.234,1024.500,449.760,-943.220
240,49076.621000,-10.279,-111.304,-158.147,387.644,-288.767,-170.467,934.500,590.760,-886.220
241,49076.638000,5.384,-118.387,-159.135,411.895,-273.515,-166.976,850.500,574.760,-836.220
242,49076.676000,9.300,-130.530,-156.170,420.553,-268.764,-161.228,768.500,486.760,-808.220
243,49076.684000,11.258,-138.625,-152.216,428.152,-253.362,-156.458,683.500,431.760,-770.220
244,49076.712000,16.153,-144.696,-149.251,430.004,-247.578,-153.544,620.500,410.760,-711.220
245,49076.712000,26.922,-150.767,-146.286,441.535,-238.018,-146.868,567.500,385.760,-650.220
246,49076.737000,37.690,-157.850,-143.320,445.309,-228.382,-143.993,533.500,358.760,-615.220
247,49076.762000,44.543,-162.909,-146.286,452.018,-220.709,-140.183,464.500,237.760,-538.220
248,49076.781000,59.228,-163.921,-139.367,451.843,-214.911,-133.295,415.500,146.760,-444.220
249,49076.803000,68.038,-169.992,-129.483,462.537,-215.013,-129.547,327.500,-19.240,-345.220
250,49076.821000,64.122,-176.063,-129.483,463.341,-207.289,-123.663,222.500,-200.240,-268.220
251,49076.843000,55.312,-173.028,-132.448,467.272,-205.388,-125.704,139.500,-225.240,-171.220
252,49076.858000,53.354,-171.004,-128.494,461.331,-205.338,-121.661,79.500,-103.240,-56.220
253,49076.886000,57.270,-171.004,-121.575,467.194,-208.296,-119.792,3.500,24.760,59.780
254,49076.903000,69.017,-175.051,-119.598,461.376,-210.175,-121.656,-88.500,49.760,179.780
255,49076.923000,70.975,-178.087,-121.575,464.364,-212.135,-123.675,-151.500,10.760,224.780
256,49076.946000,69.996,-175.051,-126.517,461.612,-218.873,-130.510,-261.500,-70.240,289.780
257,49076.963000,68.038,-163.921,-122.564,455.838,-225.589,-132.369,-348.500,-94.240,386.780
258,49077.1000,69.017,-153.802,-112.680,447.109,-226.473,-136.151,-451.500,-44.240,513.780
259,49077.19000,67.059,-154.814,-120.587,435.699,-237.962,-148.734,-595.500,-58.240,673.780
260,49077.37000,58.249,-148.743,-141.344,440.750,-247.677,-152.750,-658.500,-30.240,787.780
261,49077.53000,63.143,-139.636,-137.390,421.416,-258.133,-160.271,-716.500,23.760,959.780
262,49077.79000,64.122,-125.470,-120.587,409.874,-262.854,-168.921,-834.500,42.760,1092.780
263,49077.97000,48.459,-108.269,-137.390,393.555,-278.172,-178.459,-903.500,-54.240,1158.780
264,49077.114000,18.111,-124.459,-159.135,373.445,-297.318,-192.848,-959.500,-56.240,1293.780
265,49077.137000,17.132,-123.447,-150.239,355.088,-301.975,-203.347,-1016.500,201.760,1359.780
266,49077.159000,23.985,-94.103,-151.228,333.010,-316.265,-219.675,-1176.500,190.760,1341.780
267,49077.184000,10.279,-74.877,-183.846,323.427,-324.876,-226.387,-1246.500,68.760,1347.780
268,49077.203000,1.468,-70.830,-194.718,296.334,-333.321,-238.695,-1248.500,242.760,1414.780
269,49077.222000,16.153,-57.676,-171.985,276.064,-338.926,-251.128,-1295.500,385.760,1457.780
270,49077.242000,29.859,-40.474,-177.915,238.295,-351.140,-266.197,-1455.500,66.760,1518.780
271,49077.259000,3.426,-27.320,-219.429,227.663,-355.874,-270.925,-1410.500,95.760,1609.780
272,49077.284000,-5.384,-27.320,-214.486,189.807,-364.221,-283.044,-1399.500,203.760,1670.780
273,49077.299000,21.048,-6.071,-199.660,151.933,-370.633,-295.164,-1437.500,328.760,1730.780
274,49077.322000,31.816,26.308,-222.394,135.394,-373.380,-298.806,-1488.500,-44.240,1789.780
275,49077.334000,6.363,32.379,-232.278,95.460,-383.652,-303.010,-1491.500,-271.240,1893.780
276,49077.367000,-16.153,40.474,-238.208,70.972,-384.399,-300.607,-1455.500,-83.240,1963.780
277,49077.383000,-5.384,60.711,-232.278,27.080,-387.862,-305.733,-1455.500,-34.240,2004.780
278,49077.400000,-6.363,77.913,-246.116,9.380,-387.707,-300.497,-1488.500,-292.240,1959.780
279,49077.421000,-26.922,87.020,-273.792,-32.712,-389.261,-297.782,-1431.500,-368.240,1983.780
280,49077.442000,-47.480,100.174,-275.768,-70.025,-386.027,-291.219,-1310.500,-211.240,1991.780
281,49077.464000,-36.711,125.470,-256.000,-97.449,-384.811,-289.751,-1260.500,-141.240,1983.780
282,49077.484000,-30.837,142.672,-247.104,-132.935,-382.570,-275.343,-1282.500,-345.240,2000.780
283,49077.519000,-45.522,155.826,-275.768,-152.609,-378.526,-271.062,-1193.500,-572.240,2105.780
284,49077.533000,-40.627,171.004,-240.185,-184.269,-370.518,-254.760,-1086.500,-672.240,2158.780
285,49077.562000,-54.333,191.241,-242.162,-201.086,-367.473,-245.606,-1078.500,-735.240,2156.780
286,49077.568000,-69.017,201.360,-254.023,-238.608,-360.379,-229.199,-1023.500,-881.240,2181.780
287,49077.587000,-60.207,201.360,-247.104,-256.718,-343.792,-209.209,-882.500,-865.240,2302.780
288,49077.614000,-47.480,211.478,-241.174,-288.247,-338.680,-198.813,-792.500,-864.240,2440.780
289,49077.634000,-44.543,232.727,-247.104,-322.049,-318.082,-178.550,-755.500,-920.240,2604.780
290,49077.646000,-55.312,245.881,-240.185,-336.936,-308.281,-171.406,-632.500,-1068.240,2697.780
291,49077.664000,-91.533,235.763,-221.405,-363.907,-283.874,-152.253,-483.500,-1078.240,2776.780
292,49077.691000,-108.176,235.763,-232.278,-380.743,-271.151,-147.048,-398.500,-843.240,2849.780
293,49077.713000,-90.554,232.727,-237.220,-404.659,-239.021,-138.787,-271.500,-410.240,2951.780
294,49077.733000,-60.207,237.787,-227.336,-416.631,-217.634,-136.631,-210.500,-179.240,2953.780
295,49077.751000,-53.354,240.822,-211.521,-437.648,-179.725,-129.412,-204.500,-224.240,2897.780
296,49077.773000,-60.207,233.739,-206.579,-455.694,-141.841,-124.215,-207.500,-302.240,2814.780
297,49077.791000,-68.038,213.502,-220.417,-458.789,-126.337,-123.194,-184.500,-441.240,2624.780
298,49077.807000,-65.101,200.348,-220.417,-468.071,-95.310,-112.237,-183.500,-531.240,2481.780
299,49077.828000,-68.038,199.336,-210.533,-471.165,-81.742,-110.229,-182.500,-742.240,2160.780
300,49077.857000,-87.618,198.324,-200.649,-484.255,-58.417,-101.165,-142.500,-786.240,1869.780
301,49077.878000,-97.407,198.324,-208.556,-485.279,-47.764,-104.113,-87.500,-569.240,1610.780
302,49077.901000,-87.618,194.277,-211.521,-487.448,-32.272,-100.155,-7.500,-256.240,1331.780
303,49077.918000,-66.080,191.241,-199.660,-489.513,-14.838,-103.092,15.500,-110.240,1039.780
304,49077.936000,-57.270,185.170,-189.776,-487.652,-10.022,-100.177,16.500,-169.240,749.780
305,49077.973000,-68.038,183.146,-190.764,-488.693,-5.177,-99.180,45.500,-308.240,397.780
306,49078.2000,-89.576,174.040,-182.857,-477.938,-6.243,-98.385,75.500,-354.240,-13.220
307,49078.5000,-101.323,165.945,-179.892,-490.570,-11.930,-100.123,63.500,-317.240,-207.220
308,49078.26000,-107.197,174.040,-185.822,-486.577,-18.736,-101.170,12.500,-171.240,-620.220
309,49078.40000,-106.218,191.241,-191.753,-483.482,-34.240,-102.192,-29.500,-1.240,-1031.220
310,49078.58000,-104.260,209.455,-193.730,-488.311,-42.903,-101.112,-72.500,132.760,-1373.220
311,49078.81000,-97.407,225.644,-191.753,-482.166,-67.139,-104.145,-83.500,216.760,-1676.220
312,49078.98000,-93.491,234.751,-193.730,-478.973,-93.285,-105.156,-89.500,217.760,-1918.220
313,49078.121000,-85.660,242.846,-209.544,-470.076,-108.846,-102.341,-95.500,149.760,-2131.220
314,49078.143000,-88.597,253.976,-220.417,-464.777,-143.712,-107.317,-106.500,17.760,-2369.220
315,49078.175000,-98.386,270.166,-229.313,-452.952,-162.204,-102.582,-106.500,-51.240,-2544.220
316,49078.179000,-112.092,281.296,-245.127,-439.842,-199.079,-105.724,-68.500,-134.240,-2621.220
317,49078.201000,-112.092,275.225,-257.977,-434.816,-213.634,-105.796,-10.500,-197.240,-2740.220
318,49078.223000,-106.218,270.166,-263.907,-410.949,-257.382,-105.183,34.500,-326.240,-2897.220
319,49078.251000,-119.924,272.190,-266.873,-384.200,-297.288,-103.640,120.500,-510.240,-3085.220
320,49078.266000,-143.419,265.107,-260.942,-362.503,-317.800,-103.016,220.500,-446.240,-3228.220
321,49078.286000,-150.272,260.047,-258.965,-327.884,-352.935,-106.540,306.500,-88.240,-3262.220
322,49078.303000,-132.650,258.024,-261.931,-300.221,-374.463,-110.942,424.500,272.760,-3293.220
323,49078.321000,-110.134,246.893,-251.058,-263.553,-397.028,-126.332,522.500,437.760,-3323.220
324,49078.343000,-83.702,228.680,-243.151,-243.823,-412.683,-127.647,577.500,446.760,-3326.220
325,49078.371000,-71.954,210.466,-240.185,-192.555,-436.354,-138.371,704.500,324.760,-3304.220
326,49078.386000,-74.891,194.277,-237.220,-161.085,-448.244,-141.867,819.500,159.760,-3266.220
327,49078.408000,-80.765,174.040,-233.266,-109.949,-463.211,-149.645,944.500,155.760,-3145.220
328,49078.431000,-81.744,147.731,-223.382,-57.040,-465.624,-153.532,1025.500,260.760,-3053.220
329,49078.478000,-76.849,125.470,-226.347,-34.439,-470.662,-156.879,1092.500,303.760,-2918.220
330,49078.487000,-69.017,100.174,-225.359,14.460,-470.141,-156.761,1147.500,299.760,-2827.220
331,49078.487000,-69.996,79.937,-219.429,43.928,-473.305,-162.200,1185.500,307.760,-2825.220
332,49078.507000,-71.954,65.771,-214.486,93.698,-461.184,-162.111,1243.500,388.760,-2725.220
333,49078.527000,-52.375,47.557,-203.614,120.152,-461.422,-164.547,1272.500,438.760,-2667.220
334,49078.548000,-9.300,26.308,-187.799,171.817,-444.482,-163.512,1253.500,431.760,-2573.220
335,49078.574000,9.300,10.119,-175.938,218.496,-432.343,-154.508,1186.500,100.760,-2538.220
336,49078.597000,-17.132,-2.024,-167.042,234.947,-423.793,-148.902,1084.500,-183.240,-2572.220
337,49078.612000,-33.774,-9.107,-170.996,278.496,-398.087,-135.921,1045.500,-115.240,-2401.220
338,49078.634000,-28.880,-25.296,-168.031,297.961,-394.399,-132.331,1068.500,113.760,-2279.220
339,49078.657000,-7.342,-42.498,-163.089,335.727,-370.571,-123.183,1026.500,235.760,-2131.220
340,49078.676000,-7.342,-57.676,-157.158,353.138,-360.096,-117.597,1005.500,283.760,-1993.220
341,49078.693000,-29.859,-81.960,-147.274,373.342,-334.168,-112.078,965.500,419.760,-1845.220
342,49078.716000,-8.321,-96.126,-142.332,386.741,-311.080,-107.420,961.500,841.760,-1738.220
343,49078.738000,44.543,-109.281,-125.529,413.971,-294.884,-106.936,945.500,924.760,-1538.220
344,49078.756000,75.870,-135.589,-117.622,426.348,-274.693,-98.318,797.500,436.760,-1350.220
345,49078.778000,61.185,-153.802,-115.645,437.882,-270.940,-88.682,644.500,22.760,-1163.220
346,49078.794000,48.459,-162.909,-119.598,452.331,-259.472,-82.060,558.500,-91.240,-912.220
347,49078.821000,55.312,-168.980,-125.529,457.031,-249.848,-76.248,527.500,-174.240,-766.220
348,49078.846000,68.038,-176.063,-110.703,459.705,-242.146,-65.475,425.500,-359.240,-628.220
349,49078.866000,50.417,-184.158,-109.714,467.472,-241.253,-62.660,328.500,-421.240,-479.220
350,49078.888000,34.753,-187.194,-114.656,472.120,-233.568,-52.907,308.500,-330.240,-416.220
351,49078.903000,43.564,-189.217,-110.703,470.076,-231.619,-48.935,259.500,-227.240,-287.220
352,49078.931000,56.291,-192.253,-106.749,472.951,-230.681,-46.034,145.500,-339.240,-223.220
353,49078.958000,40.627,-195.289,-112.680,475.843,-229.743,-44.117,29.500,-418.240,-153.220
354,49078.987000,33.774,-192.253,-121.575,473.825,-228.760,-41.129,-27.500,-349.240,-83.220
355,49078.990000,43.564,-192.253,-121.575,476.743,-228.788,-40.196,-91.500,-346.240,-10.220
356,49079.8000,35.732,-187.194,-122.564,474.822,-232.640,-40.158,-189.500,-372.240,96.780
357,49079.31000,27.901,-185.170,-130.471,473.905,-235.531,-42.107,-236.500,-267.240,280.780
358,49079.53000,33.774,-183.146,-129.483,464.226,-243.179,-43.896,-222.500,-12.240,511.780
359,49079.71000,50.417,-173.028,-121.575,461.360,-247.020,-45.810,-234.500,77.760,610.780
360,49079.87000,56.291,-165.945,-126.517,449.872,-259.482,-53.467,-305.500,132.760,727.780
361,49079.113000,23.985,-162.909,-156.170,448.055,-265.264,-58.351,-453.500,-111.240,868.780
362,49079.133000,26.922,-150.767,-148.263,436.612,-280.627,-66.990,-430.500,-1.240,983.780
363,49079.148000,46.501,-136.601,-116.633,431.860,-292.189,-68.862,-398.500,237.760,1153.780
364,49079.178000,40.627,-137.613,-127.506,415.567,-304.602,-81.357,-528.500,276.760,1291.780
365,49079.194000,2.447,-139.636,-169.019,404.988,-317.076,-85.093,-634.500,153.760,1475.780
366,49079.221000,10.279,-128.506,-160.124,379.006,-334.233,-100.364,-611.500,573.760,1587.780
367,49079.239000,34.753,-108.269,-135.413,355.889,-349.486,-112.735,-693.500,781.760,1651.780
368,49079.268000,33.774,-90.055,-150.239,350.445,-361.991,-130.345,-813.500,667.760,1656.780
369,49079.271000,8.321,-83.984,-159.135,320.505,-374.276,-145.552,-965.500,410.760,1613.780
370,49079.291000,-7.342,-81.960,-170.008,301.214,-381.825,-157.015,-1078.500,509.760,1668.780
371,49079.321000,2.447,-67.794,-193.730,269.333,-392.156,-174.159,-1149.500,659.760,1761.780
372,49079.336000,16.153,-51.605,-175.938,253.020,-398.762,-188.630,-1157.500,644.760,1808.780
373,49079.358000,7.342,-24.285,-161.112,217.128,-402.286,-203.742,-1248.500,410.760,1883.780
374,49079.378000,-9.300,-4.047,-179.892,181.282,-414.520,-216.875,-1393.500,293.760,2030.780
375,49079.392000,-20.069,2.024,-211.521,158.891,-421.084,-219.425,-1453.500,253.760,2197.780
376,49079.424000,-3.426,31.368,-213.498,112.201,-424.513,-232.377,-1456.500,273.760,2229.780
377,49079.439000,-31.816,56.664,-220.417,84.865,-427.164,-233.859,-1450.500,149.760,2230.780
378,49079.457000,-56.291,67.794,-257.977,43.847,-431.626,-235.097,-1479.500,-115.240,2309.780
379,49079.486000,-51.396,78.925,-250.069,19.454,-431.399,-238.604,-1324.500,43.760,2441.780
380,49079.497000,-44.543,103.209,-243.151,-34.407,-428.009,-236.670,-1271.500,36.760,2460.780
381,49079.536000,-51.396,124.459,-257.977,-54.955,-427.822,-236.307,-1255.500,-221.240,2506.780
382,49079.549000,-69.996,137.613,-282.687,-103.101,-424.493,-225.615,-1168.500,-524.240,2499.780
383,49079.563000,-75.870,146.719,-278.734,-140.553,-421.267,-211.173,-1062.500,-540.240,2485.780
384,49079.586000,-92.512,167.968,-269.838,-164.203,-412.352,-205.843,-952.500,-521.240,2421.780
385,49079.608000,-97.407,178.087,-260.942,-203.632,-399.429,-195.316,-904.500,-435.240,2426.780
386,49079.628000,-90.554,191.241,-273.792,-217.523,-391.572,-188.188,-829.500,-416.240,2418.780
387,49079.646000,-80.765,197.312,-256.000,-250.085,-376.775,-179.754,-740.500,-351.240,2393.780
388,49079.674000,-121.881,209.455,-263.907,-274.791,-368.823,-169.482,-693.500,-472.240,2303.780
389,49079.681000,-146.356,201.360,-275.768,-303.493,-346.322,-162.109,-510.500,-240.240,2346.780
390,49079.701000,-130.692,193.265,-265.884,-324.281,-323.887,-159.799,-362.500,147.760,2303.780
391,49079.728000,-116.987,199.336,-241.174,-346.885,-311.105,-160.398,-320.500,338.760,2196.780
392,49079.746000,-122.860,201.360,-224.371,-363.750,-287.737,-159.143,-344.500,451.760,2127.780
393,49079.773000,-125.797,196.300,-225.359,-372.707,-273.147,-158.017,-340.500,580.760,2131.780
394,49079.788000,-96.428,189.217,-224.371,-393.470,-245.871,-159.650,-340.500,599.760,2142.780
395,49079.803000,-52.375,191.241,-222.394,-402.497,-229.349,-155.572,-384.500,355.760,2132.780
396,49079.817000,-59.228,204.395,-217.452,-422.393,-204.991,-149.342,-453.500,-214.240,2055.780
397,49079.846000,-101.323,212.490,-228.324,-424.542,-197.241,-142.422,-456.500,-647.240,1833.780
398,49079.867000,-128.734,196.300,-246.116,-437.631,-175.852,-132.371,-312.500,-615.240,1725.780
399,49079.887000,-133.629,173.028,-247.104,-446.684,-160.300,-126.322,-209.500,-280.240,1473.780
400,49079.907000,-110.134,176.063,-235.243,-455.580,-148.610,-127.163,-163.500,59.760,1306.780
401,49079.929000,-93.491,187.194,-226.347,-460.675,-134.058,-123.152,-88.500,196.760,1085.780
402,49079.947000,-73.912,181.123,-224.371,-460.720,-127.285,-124.143,-48.500,165.760,900.780
403,49079.969000,-68.038,167.968,-226.347,-463.797,-115.652,-122.134,12.500,-62.240,740.780
404,49080.3000,-74.891,175.051,-224.371,-459.848,-117.621,-123.186,54.500,-296.240,368.780
405,49080.26000,-99.365,191.241,-208.556,-458.835,-115.692,-126.159,135.500,-292.240,134.780
406,49080.43000,-111.113,192.253,-198.672,-457.848,-114.733,-127.162,215.500,4.760,32.780
407,49080.58000,-110.134,188.206,-185.822,-458.739,-118.591,-130.095,261.500,330.760,-116.220
408,49080.81000,-104.260,184.158,-174.950,-451.794,-121.551,-134.153,238.500,515.760,-361.220
409,49080.98000,-96.428,186.182,-172.973,-454.617,-122.486,-140.008,199.500,550.760,-654.220
410,49080.122000,-88.597,191.241,-177.915,-449.566,-132.201,-144.024,156.500,507.760,-967.220
411,49080.146000,-86.639,202.372,-184.834,-451.409,-138.952,-146.937,128.500,455.760,-1114.220
412,49080.159000,-92.512,221.597,-206.579,-442.443,-152.574,-149.048,144.500,306.760,-1346.220
413,49080.179000,-103.281,225.644,-228.324,-435.400,-164.240,-154.082,198.500,128.760,-1517.220
414,49080.202000,-116.008,219.573,-259.954,-427.290,-185.589,-159.122,280.500,-108.240,-1697.220
415,49080.219000,-121.881,211.478,-294.548,-406.423,-214.795,-162.411,317.500,-346.240,-1896.220
416,49080.237000,-126.776,215.526,-319.259,-400.437,-227.425,-162.502,335.500,-619.240,-2271.220
417,49080.259000,-128.734,231.715,-319.259,-376.658,-265.370,-159.925,351.500,-940.240,-2633.220
418,49080.282000,-130.692,250.941,-315.305,-366.686,-285.774,-160.077,395.500,-1166.240,-2875.220
419,49080.299000,-147.335,252.964,-308.386,-337.044,-326.677,-155.632,437.500,-1013.240,-3048.220
420,49080.319000,-161.040,246.893,-301.467,-316.327,-343.309,-156.963,459.500,-802.240,-3115.220
421,49080.333000,-157.124,248.917,-311.351,-276.894,-373.653,-158.610,570.500,-299.240,-3230.220
422,49080.358000,-123.839,244.870,-301.467,-229.530,-404.063,-166.303,723.500,73.760,-3295.220
423,49080.381000,-89.576,235.763,-284.664,-199.012,-416.911,-170.766,847.500,154.760,-3364.220
424,49080.401000,-65.101,219.573,-274.780,-141.916,-437.734,-180.612,955.500,130.760,-3386.220
425,49080.423000,-55.312,205.407,-261.931,-123.299,-438.869,-181.925,1063.500,118.760,-3357.220
426,49080.444000,-50.417,192.253,-251.058,-66.344,-451.957,-187.839,1198.500,148.760,-3291.220
427,49080.476000,-38.669,173.028,-237.220,-32.062,-454.202,-189.428,1297.500,146.760,-3186.220
428,49080.494000,-35.732,147.731,-222.394,26.692,-457.637,-191.447,1345.500,132.760,-3082.220
429,49080.513000,-19.090,104.221,-202.625,54.098,-458.854,-191.931,1337.500,160.760,-3014.220
430,49080.545000,-13.216,77.913,-193.730,103.896,-453.506,-189.865,1354.500,101.760,-2897.220
431,49080.553000,-6.363,52.617,-179.892,159.381,-441.447,-181.016,1351.500,24.760,-2793.220
432,49080.585000,-1.468,26.308,-167.042,178.794,-435.826,-175.459,1301.500,-73.240,-2713.220
433,49080.598000,-3.426,3.036,-166.054,228.355,-417.909,-166.513,1222.500,-105.240,-2618.220
434,49080.607000,-6.363,-21.249,-162.100,255.578,-412.360,-160.110,1183.500,-81.240,-2488.220
435,49080.634000,4.405,-36.427,-160.124,293.318,-389.501,-148.991,1145.500,3.760,-2361.220
436,49080.655000,11.258,-48.569,-158.147,306.754,-376.090,-141.369,1116.500,2.760,-2251.220
437,49080.676000,17.132,-62.735,-150.239,352.332,-356.205,-129.400,1098.500,-12.240,-2174.220
438,49080.701000,9.300,-77.913,-142.332,372.415,-332.221,-116.001,1029.500,12.760,-2025.220
439,49080.718000,7.342,-93.091,-124.541,391.853,-321.759,-114.389,958.500,223.760,-1824.220
440,49080.743000,24.964,-107.257,-124.541,407.157,-300.627,-105.824,903.500,571.760,-1603.220
441,49080.758000,50.417,-127.494,-130.471,418.706,-291.066,-100.133,857.500,680.760,-1363.220
442,49080.778000,69.017,-139.636,-130.471,438.054,-268.995,-99.517,805.500,539.760,-1216.220
443,49080.797000,69.017,-155.826,-136.402,447.568,-258.452,-89.853,706.500,190.760,-1085.220
444,49080.812000,63.143,-169.992,-137.390,453.159,-246.906,-80.121,633.500,-103.240,-987.220
445,49080.838000,62.164,-178.087,-131.459,466.422,-231.569,-63.637,587.500,-263.240,-908.220
446,49080.861000,58.249,-196.300,-126.517,473.140,-224.863,-59.826,571.500,-303.240,-867.220
447,49080.878000,47.480,-198.324,-130.471,480.637,-215.274,-46.188,497.500,-382.240,-776.220
448,49080.896000,45.522,-188.206,-125.529,483.484,-209.498,-44.276,467.500,-274.240,-705.220
449,49080.917000,48.459,-197.312,-109.714,486.166,-198.892,-35.476,441.500,-124.240,-575.220
450,49080.938000,57.270,-201.360,-107.737,493.950,-196.062,-34.632,336.500,29.760,-419.220
451,49080.971000,66.080,-200.348,-114.656,489.905,-191.194,-29.644,250.500,35.760,-348.220
452,49080.999000,68.038,-199.336,-108.726,502.581,-188.409,-28.887,172.500,21.760,-271.220
453,49081.14000,71.954,-203.383,-110.703,494.649,-186.408,-23.827,69.500,13.760,-162.220
454,49081.32000,71.954,-200.348,-117.622,498.546,-186.444,-22.912,24.500,-18.240,-69.220
455,49081.48000,62.164,-198.324,-122.564,494.657,-183.504,-25.800,-27.500,-68.240,-13.220
456,49081.66000,54.333,-200.348,-122.564,492.735,-183.484,-27.735,-54.500,-6.240,110.780
457,49081.88000,58.249,-196.300,-124.541,494.762,-187.369,-29.735,-90.500,73.760,221.780
458,49081.106000,56.291,-196.300,-129.483,494.825,-196.077,-28.741,-140.500,39.760,330.780
459,49081.129000,49.438,-194.277,-135.413,487.040,-195.035,-31.558,-188.500,-10.240,423.780
460,49081.160000,52.375,-189.217,-126.517,484.280,-206.614,-35.433,-200.500,28.760,499.780
461,49081.173000,63.143,-183.146,-115.645,485.512,-217.255,-44.303,-250.500,51.760,608.780
462,49081.196000,52.375,-194.277,-121.575,477.807,-222.985,-48.098,-337.500,25.760,729.780
463,49081.213000,57.270,-184.158,-124.541,469.203,-237.412,-51.866,-370.500,74.760,782.780
464,49081.231000,71.954,-168.980,-102.795,460.545,-244.099,-56.628,-392.500,199.760,919.780
465,49081.247000,84.681,-164.933,-85.992,454.072,-260.469,-69.292,-530.500,286.760,1087.780
466,49081.274000,74.891,-148.743,-111.691,443.527,-269.070,-76.971,-699.500,170.760,1277.780
467,49081.293000,56.291,-146.719,-128.494,422.438,-288.208,-91.342,-766.500,257.760,1437.780
468,49081.317000,69.017,-129.518,-114.656,415.842,-298.779,-100.073,-832.500,538.760,1637.780
469,49081.339000,82.723,-114.340,-105.761,390.917,-320.780,-117.327,-1007.500,472.760,1777.780
470,49081.357000,69.996,-103.209,-119.598,365.056,-337.931,-139.491,-1143.500,266.760,1900.780
471,49081.384000,39.648,-97.138,-129.483,339.956,-352.199,-150.844,-1247.500,335.760,2031.780
472,49081.403000,23.985,-75.889,-140.355,305.255,-371.207,-169.897,-1306.500,450.760,2094.780
473,49081.422000,14.195,-52.617,-155.181,286.977,-378.763,-183.347,-1409.500,653.760,2183.780
474,49081.431000,-5.384,-39.462,-174.950,248.455,-392.891,-210.214,-1495.500,803.760,2212.780
475,49081.456000,-1.468,-36.427,-192.741,223.196,-393.618,-219.610,-1557.500,967.760,2209.780
476,49081.483000,19.090,-20.237,-203.614,181.625,-402.886,-242.491,-1643.500,784.760,2168.780
477,49081.498000,6.363,3.036,-209.544,136.927,-406.330,-257.447,-1722.500,393.760,2155.780
478,49081.519000,-28.880,23.273,-225.359,105.780,-407.004,-265.756,-1746.500,274.760,2172.780
479,49081.537000,-29.859,50.593,-250.069,63.809,-408.552,-269.933,-1683.500,272.760,2169.780
480,49081.558000,-30.837,74.877,-261.931,41.347,-407.377,-272.491,-1616.500,201.760,2137.780
481,49081.584000,-46.501,89.043,-265.884,-1.656,-405.047,-275.670,-1603.500,38.760,2137.780
482,49081.599000,-48.459,104.221,-276.757,-28.031,-407.708,-276.185,-1519.500,9.760,2128.780
483,49081.622000,-35.732,122.435,-260.942,-74.117,-400.520,-273.409,-1428.500,-25.240,2106.780
484,49081.659000,-40.627,136.601,-256.000,-91.860,-397.463,-267.192,-1411.500,-244.240,2097.780
485,49081.678000,-51.396,148.743,-265.884,-126.307,-396.195,-255.755,-1319.500,-316.240,2156.780
486,49081.687000,-41.606,153.802,-251.058,-168.636,-383.244,-247.146,-1283.500,-341.240,2160.780
487,49081.711000,-40.627,168.980,-237.220,-190.355,-377.252,-238.893,-1300.500,-484.240,2147.780
488,49081.726000,-58.249,182.134,-252.046,-223.962,-370.193,-222.555,-1224.500,-618.240,2185.780
489,49081.748000,-68.038,186.182,-253.035,-248.643,-361.272,-214.254,-1164.500,-544.240,2199.780
490,49081.757000,-53.354,202.372,-231.290,-282.349,-343.571,-197.927,-1081.500,-419.240,2207.780
491,49081.794000,-42.585,220.585,-232.278,-294.266,-335.731,-191.818,-1043.500,-578.240,2276.780
492,49081.803000,-57.270,219.573,-247.104,-324.127,-318.071,-171.622,-955.500,-833.240,2370.780
493,49081.826000,-69.017,221.597,-243.151,-352.031,-298.492,-152.446,-885.500,-918.240,2361.780
494,49081.846000,-80.765,240.822,-231.290,-369.932,-287.701,-141.313,-802.500,-962.240,2377.780
495,49081.863000,-91.533,253.976,-237.220,-391.966,-266.240,-123.228,-635.500,-922.240,2580.780
496,49081.882000,-108.176,247.905,-250.069,-404.942,-249.684,-117.111,-492.500,-654.240,2648.780
497,49081.908000,-128.734,239.810,-240.185,-429.906,-215.613,-105.881,-387.500,-204.240,2646.780
498,49081.926000,-140.482,221.597,-235.243,-435.028,-196.224,-102.859,-348.500,107.760,2685.780
499,49081.942000,-127.755,214.514,-222.394,-450.027,-157.392,-104.608,-358.500,818.760,2818.780
500,49081.968000,-85.660,226.656,-207.568,-463.148,-109.872,-106.401,-434.500,1311.760,2963.780
501,49081.986000,39.648,219.573,-201.637,-480.144,-85.543,-98.253,-414.500,1091.760,2865.780
502,49082.13000,23.006,197.312,-201.637,-486.404,-50.667,-94.245,-454.500,64.760,2539.780
503,49082.28000,-40.627,199.336,-213.498,-482.735,-41.038,-85.461,-434.500,-901.240,1942.780
504,49082.46000,-88.597,218.561,-224.371,-485.952,-21.669,-79.520,-353.500,-1055.240,1489.780
505,49082.68000,-101.323,233.739,-239.197,-489.997,-16.801,-74.532,-204.500,-705.240,1156.780
506,49082.93000,-95.449,230.704,-237.220,-494.044,-4.190,-73.491,-50.500,-377.240,911.780
507,49082.137000,-98.386,229.692,-228.324,-489.231,2.536,-72.599,7.500,-258.240,775.780
508,49082.150000,-104.260,231.715,-215.475,-491.234,11.263,-74.543,122.500,11.760,498.780
509,49082.163000,-95.449,212.490,-200.649,-486.263,10.255,-78.568,258.500,224.760,164.780
510,49082.178000,-83.702,184.158,-188.788,-484.254,8.304,-80.570,344.500,221.760,-194.220
511,49082.201000,-73.912,179.099,-182.857,-486.044,-2.316,-84.463,319.500,65.760,-722.220
512,49082.216000,-78.807,199.336,-179.892,-487.809,-8.094,-92.301,249.500,-18.240,-1236.220
513,49082.238000,-77.828,220.585,-177.915,-480.719,-34.277,-92.396,208.500,147.760,-1574.220
514,49082.258000,-71.954,235.763,-182.857,-481.530,-46.841,-95.320,218.500,385.760,-1769.220
515,49082.275000,-53.354,245.881,-200.649,-476.277,-69.127,-104.247,243.500,456.760,-1890.220
516,49082.307000,-44.543,250.941,-205.591,-470.997,-96.251,-112.184,317.500,462.760,-1960.220
517,49082.324000,-41.606,260.047,-232.278,-466.916,-108.860,-115.195,325.500,233.760,-2055.220
518,49082.342000,-42.585,259.036,-259.954,-447.901,-141.914,-122.384,394.500,-181.240,-2134.220
519,49082.364000,-69.017,259.036,-261.931,-448.728,-156.415,-123.337,494.500,-578.240,-2317.220
520,49082.382000,-114.050,266.119,-268.849,-433.609,-193.304,-129.468,564.500,-684.240,-2496.220
521,49082.411000,-134.608,284.332,-278.734,-419.619,-215.674,-134.612,672.500,-358.240,-2652.220
522,49082.429000,-117.966,289.391,-282.687,-395.651,-249.737,-144.840,818.500,-22.240,-2770.220
523,49082.454000,-90.554,287.368,-285.652,-387.551,-266.247,-151.855,942.500,-22.240,-2926.220
524,49082.468000,-83.702,278.261,-279.722,-350.836,-299.457,-164.280,985.500,-138.240,-3040.220
525,49082.491000,-96.428,267.130,-273.792,-311.228,-339.470,-170.840,1016.500,-375.240,-3252.220
526,49082.511000,-108.176,261.059,-288.618,-289.472,-357.075,-175.142,1044.500,-337.240,-3323.220
527,49082.526000,-99.365,253.976,-306.409,-240.089,-388.467,-185.824,1155.500,-137.240,-3378.220
528,49082.548000,-74.891,241.834,-299.490,-211.529,-399.362,-191.239,1324.500,16.760,-3389.220
529,49082.571000,-66.080,222.609,-282.687,-154.407,-423.087,-201.082,1494.500,83.760,-3425.220
530,49082.601000,-62.164,201.360,-256.000,-128.818,-428.149,-207.435,1641.500,259.760,-3374.220
531,49082.605000,-45.522,184.158,-240.185,-64.001,-441.306,-215.458,1773.500,515.760,-3255.220
532,49082.628000,-20.069,157.850,-224.371,-6.998,-440.840,-231.234,1904.500,721.760,-3108.220
533,49082.654000,10.279,129.518,-201.637,29.223,-437.297,-234.832,1940.500,778.760,-3039.220
534,49082.669000,30.837,105.233,-183.846,90.883,-428.177,-241.840,1954.500,760.760,-2945.220
535,49082.687000,43.564,78.925,-169.019,113.265,-420.646,-239.292,1911.500,583.760,-2930.220
536,49082.710000,45.522,59.700,-164.077,168.880,-407.611,-238.322,1821.500,337.760,-2884.220
537,49082.741000,47.480,36.427,-162.100,200.934,-399.207,-230.039,1764.500,121.760,-2843.220
538,49082.753000,60.207,6.071,-158.147,254.392,-379.390,-221.163,1688.500,-91.240,-2774.220
539,49082.776000,61.185,-19.225,-149.251,279.492,-368.994,-207.837,1572.500,-331.240,-2693.220
540,49082.798000,36.711,-39.462,-148.263,323.035,-350.064,-190.910,1448.500,-376.240,-2516.220
541,49082.816000,13.216,-49.581,-150.239,358.689,-328.162,-171.877,1416.500,-242.240,-2250.220
542,49082.838000,7.342,-62.735,-135.413,374.020,-309.933,-163.310,1428.500,354.760,-2112.220
543,49082.863000,24.964,-80.949,-112.680,404.970,-284.104,-156.996,1460.500,1021.760,-1786.220
544,49082.878000,61.185,-106.245,-98.842,422.354,-266.855,-153.386,1438.500,1377.760,-1467.220
545,49082.896000,92.512,-126.482,-91.923,439.536,-242.842,-141.905,1384.500,1273.760,-1273.220
546,49082.913000,118.945,-143.684,-82.039,444.253,-233.217,-137.077,1239.500,816.760,-1193.220
547,49082.935000,136.566,-158.862,-83.027,466.295,-211.186,-122.726,1059.500,161.760,-1193.220
548,49082.967000,130.692,-176.063,-85.992,479.583,-196.815,-107.227,850.500,-455.240,-1210.220
549,49082.973000,107.197,-178.087,-86.981,482.222,-187.179,-95.471,689.500,-683.240,-1183.220
550,49082.993000,101.323,-178.087,-87.969,491.674,-171.801,-84.828,634.500,-655.240,-1119.220
551,49083.21000,116.987,-190.229,-89.946,500.307,-168.019,-77.109,565.500,-576.240,-945.220
552,49083.48000,119.924,-202.372,-81.050,506.824,-154.549,-65.427,472.500,-580.240,-774.220
553,49083.77000,105.239,-201.360,-85.992,503.715,-150.661,-57.501,371.500,-498.240,-614.220
554,49083.80000,99.365,-199.336,-90.934,507.445,-143.931,-50.684,321.500,-249.240,-465.220
555,49083.106000,112.092,-202.372,-83.027,508.379,-139.103,-50.706,248.500,-71.240,-331.220
556,49083.128000,119.924,-209.455,-80.062,515.062,-132.400,-44.925,148.500,-66.240,-256.220
557,49083.159000,127.755,-212.490,-88.958,516.022,-126.602,-46.918,43.500,-160.240,-178.220
558,49083.162000,123.839,-212.490,-95.876,516.014,-129.506,-44.945,-42.500,-201.240,-108.220
559,49083.183000,110.134,-211.478,-96.865,516.032,-131.441,-44.943,-80.500,-160.240,-72.220
560,49083.203000,110.134,-204.395,-96.865,519.011,-132.433,-46.964,-132.500,-49.240,58.780
561,49083.221000,116.008,-205.407,-100.819,507.295,-133.293,-47.740,-180.500,1.760,189.780
562,49083.243000,116.008,-202.372,-107.737,513.263,-138.180,-50.793,-231.500,-23.240,308.780
563,49083.263000,102.302,-197.312,-111.691,511.446,-143.962,-55.677,-263.500,1.760,423.780
564,49083.286000,101.323,-194.277,-111.691,501.880,-156.443,-61.399,-289.500,98.760,577.780
565,49083.308000,105.239,-194.277,-101.807,500.011,-162.228,-63.328,-355.500,99.760,738.780
566,49083.331000,103.281,-193.265,-107.737,491.442,-176.653,-69.067,-425.500,40.760,894.780
567,49083.363000,105.239,-188.206,-108.726,486.767,-183.372,-77.836,-485.500,28.760,1069.780
568,49083.382000,100.344,-181.123,-98.842,475.403,-205.506,-87.454,-528.500,-17.240,1145.780
569,49083.401000,103.281,-173.028,-93.900,474.626,-214.197,-94.321,-648.500,-46.240,1328.780
570,49083.409000,102.302,-159.874,-101.807,459.392,-241.132,-103.865,-748.500,-145.240,1515.780
571,49083.427000,90.554,-152.791,-101.807,440.994,-252.567,-108.448,-834.500,-184.240,1653.780
572,49083.452000,81.744,-138.625,-101.807,418.053,-277.488,-125.733,-953.500,-178.240,1804.780
573,49083.467000,82.723,-126.482,-103.784,393.069,-304.332,-137.073,-1079.500,-214.240,1957.780
574,49083.494000,44.543,-98.150,-130.471,379.651,-319.678,-144.693,-1225.500,-289.240,2038.780
575,49083.515000,19.090,-81.960,-143.320,341.998,-346.404,-158.763,-1219.500,-106.240,2127.780
576,49083.533000,17.132,-83.984,-144.309,330.440,-354.998,-164.455,-1210.500,126.760,2190.780
577,49083.554000,26.922,-82.972,-162.100,290.986,-377.826,-189.326,-1268.500,549.760,2316.780
578,49083.577000,41.606,-64.759,-171.985,266.793,-382.428,-201.690,-1368.500,695.760,2310.780
579,49083.594000,36.711,-42.498,-181.869,224.079,-392.664,-214.705,-1463.500,529.760,2247.780
580,49083.617000,18.111,-17.202,-202.625,177.643,-406.726,-236.509,-1565.500,284.760,2256.780
581,49083.637000,-1.468,-3.036,-217.452,160.126,-411.400,-239.147,-1574.500,183.760,2307.780
582,49083.659000,-16.153,2.024,-229.313,110.537,-420.607,-251.057,-1541.500,195.760,2374.780
583,49083.679000,-13.216,19.225,-236.232,87.167,-423.291,-255.563,-1493.500,280.760,2463.780
584,49083.697000,-13.216,39.462,-234.255,36.397,-421.854,-261.557,-1458.500,273.760,2553.780
585,49083.717000,-21.048,64.759,-249.081,9.976,-415.806,-264.050,-1466.500,216.760,2591.780
586,49083.739000,-28.880,87.020,-253.035,-45.780,-417.234,-263.062,-1436.500,22.760,2609.780
587,49083.784000,-45.522,107.257,-250.069,-62.493,-414.184,-259.817,-1386.500,-131.240,2563.780
588,49083.784000,-65.101,125.470,-256.000,-109.635,-407.959,-252.099,-1385.500,-204.240,2456.780
589,49083.807000,-82.723,132.553,-256.988,-147.010,-397.953,-245.542,-1335.500,-144.240,2378.780
590,49083.827000,-97.407,144.696,-263.907,-175.535,-390.928,-240.124,-1296.500,-0.240,2302.780
591,49083.849000,-81.744,147.731,-252.046,-214.904,-373.162,-235.510,-1232.500,243.760,2245.780
592,49083.869000,-69.996,160.885,-249.081,-233.654,-361.387,-232.239,-1244.500,312.760,2193.780
593,49083.887000,-73.912,180.111,-267.861,-271.110,-340.739,-226.678,-1251.500,315.760,2183.780
594,49083.910000,-72.933,191.241,-272.803,-280.083,-331.957,-221.607,-1170.500,250.760,2196.780
595,49083.922000,-52.375,198.324,-257.977,-311.729,-310.397,-213.197,-1070.500,253.760,2269.780
596,49083.944000,-30.837,219.573,-256.988,-335.730,-286.015,-196.065,-1061.500,61.760,2274.780
597,49083.966000,-34.753,249.929,-281.699,-362.369,-273.204,-189.702,-1015.500,-513.240,2274.780
598,49083.987000,-53.354,257.012,-277.745,-385.450,-251.738,-167.661,-805.500,-1132.240,2413.780
599,49084.9000,-69.996,256.000,-256.988,-390.587,-243.964,-157.735,-667.500,-1419.240,2589.780
600,49084.42000,-74.891,256.000,-256.000,-414.710,-213.782,-136.670,-533.500,-1510.240,2699.780
601,49084.56000,-91.533,248.917,-264.896,-431.624,-200.096,-127.526,-323.500,-1537.240,2748.780
602,49084.74000,-116.987,234.751,-253.035,-446.768,-169.983,-116.465,-203.500,-1427.240,2729.780
603,49084.92000,-132.650,214.514,-239.197,-456.773,-153.452,-112.369,31.500,-910.240,2671.780
604,49084.117000,-121.881,192.253,-240.185,-464.904,-120.490,-112.264,203.500,-130.240,2589.780
605,49084.139000,-81.744,167.968,-245.127,-469.096,-80.786,-117.158,296.500,411.760,2447.780
606,49084.154000,-44.543,159.874,-231.290,-474.052,-68.162,-120.039,263.500,453.760,2219.780
607,49084.172000,-26.922,165.945,-209.544,-478.216,-37.167,-121.970,182.500,158.760,2018.780
608,49084.189000,-29.859,173.028,-191.753,-483.216,-25.514,-121.896,114.500,-127.240,1899.780
609,49084.212000,-42.585,181.123,-197.683,-484.459,-2.290,-118.947,107.500,-328.240,1744.780
610,49084.234000,-48.459,184.158,-206.579,-478.660,5.395,-119.059,193.500,-492.240,1518.780
611,49084.257000,-51.396,172.016,-201.637,-481.712,23.806,-121.980,213.500,-583.240,1388.780
612,49084.277000,-65.101,165.945,-203.614,-477.845,38.286,-126.988,198.500,-686.240,1097.780
613,49084.299000,-86.639,175.051,-208.556,-474.996,38.254,-122.116,167.500,-591.240,874.780
614,49084.317000,-94.470,176.063,-208.556,-474.011,46.957,-127.065,164.500,-315.240,717.780
615,49084.339000,-78.807,163.921,-202.625,-477.008,49.884,-125.047,146.500,-134.240,504.780
616,49084.362000,-66.080,154.814,-191.753,-478.940,54.743,-128.956,81.500,-210.240,199.780
617,49084.383000,-71.954,149.755,-186.811,-472.047,51.779,-130.059,7.500,-319.240,-127.220
618,49084.414000,-83.702,152.791,-185.822,-472.019,45.005,-128.083,-50.500,-204.240,-416.220
619,49084.440000,-86.639,158.862,-181.869,-479.812,41.207,-127.941,-101.500,-97.240,-676.220
620,49084.446000,-84.681,160.885,-178.903,-480.753,29.603,-123.973,-127.500,93.760,-806.220
621,49084.463000,-87.618,160.885,-181.869,-479.623,13.148,-123.973,-192.500,178.760,-1087.220
622,49084.483000,-88.597,164.933,-195.707,-480.556,4.449,-121.978,-279.500,208.760,-1396.220
623,49084.506000,-98.386,188.206,-215.475,-481.329,-19.728,-120.951,-319.500,169.760,-1788.220
624,49084.528000,-116.008,206.419,-221.405,-474.336,-41.077,-118.097,-335.500,138.760,-2134.220
625,49084.543000,-129.713,224.632,-230.301,-475.100,-66.221,-117.069,-339.500,139.760,-2376.220
626,49084.566000,-131.671,242.846,-247.104,-475.953,-85.563,-114.078,-308.500,95.760,-2619.220
627,49084.583000,-124.818,257.012,-261.931,-467.786,-126.267,-112.206,-277.500,-72.240,-2840.220
628,49084.606000,-140.482,261.059,-266.873,-448.846,-171.908,-108.550,-249.500,-153.240,-3157.220
629,49084.628000,-154.187,268.142,-267.861,-440.718,-193.256,-114.575,-206.500,-209.240,-3283.220
630,49084.646000,-154.187,285.344,-272.803,-417.898,-238.935,-109.019,-147.500,-184.240,-3512.220
631,49084.668000,-148.314,297.486,-272.803,-398.088,-265.233,-109.339,-57.500,-222.240,-3673.220
632,49084.686000,-142.440,295.462,-276.757,-361.422,-311.995,-111.902,42.500,-301.240,-3715.220
633,49084.706000,-137.545,292.427,-291.583,-349.493,-336.289,-110.115,172.500,-328.240,-3762.220
634,49084.723000,-139.503,285.344,-289.606,-305.070,-375.384,-112.824,327.500,-234.240,-3760.220
635,49084.739000,-138.524,269.154,-280.710,-271.552,-404.709,-112.399,490.500,-71.240,-3698.220
636,49084.772000,-123.839,258.024,-284.664,-225.289,-425.438,-118.115,694.500,-2.240,-3624.220
637,49084.814000,-97.407,237.787,-266.873,-173.147,-447.188,-123.935,802.500,-40.240,-3582.220
638,49084.828000,-66.080,202.372,-244.139,-147.678,-458.064,-120.435,947.500,-353.240,-3491.220
639,49084.831000,-52.375,163.921,-242.162,-86.141,-475.085,-106.737,957.500,-852.240,-3387.220
640,49084.851000,-64.122,137.613,-247.104,-59.763,-482.103,-101.288,948.500,-1033.240,-3280.220
641,49084.872000,-99.365,111.304,-229.313,-9.114,-487.419,-86.427,951.500,-664.240,-3203.220
642,49084.889000,-105.239,95.115,-216.463,28.139,-491.624,-89.050,1024.500,-139.240,-3112.220
643,49084.912000,-76.849,75.889,-198.672,81.738,-485.351,-81.146,1083.500,-4.240,-3140.220
644,49084.943000,-57.270,53.628,-178.903,137.293,-475.223,-75.249,1073.500,-8.240,-3103.220
645,49084.958000,-51.396,6.071,-157.158,156.810,-469.597,-75.601,1059.500,40.760,-3041.220
646,49084.981000,-14.195,-12.142,-150.239,211.281,-455.595,-65.752,1036.500,70.760,-3009.220
647,49084.998000,7.342,-33.391,-140.355,232.667,-446.119,-63.188,947.500,-121.240,-2984.220
648,49085.16000,-4.405,-53.628,-126.517,284.929,-421.467,-44.453,817.500,-486.240,-2975.220
649,49085.33000,-14.195,-66.783,-122.564,309.154,-409.120,-38.005,706.500,-536.240,-2889.220
650,49085.65000,-19.090,-79.937,-123.552,348.781,-382.411,-24.955,634.500,-304.240,-2731.220
651,49085.91000,-1.468,-89.043,-107.737,366.478,-352.305,-268.463,630.500,100.760,-2585.220
652,49085.103000,12.237,-114.340,-107.737,393.121,-332.527,-13.984,592.500,433.760,-2345.220
653,49085.126000,36.711,-134.577,-117.622,422.184,-306.677,-11.575,568.500,667.760,-2050.220
654,49085.142000,73.912,-150.767,-112.680,435.784,-294.224,-12.815,604.500,761.760,-1767.220
655,49085.158000,96.428,-166.957,-102.795,455.054,-271.189,-8.261,603.500,673.760,-1611.220
656,49085.186000,101.323,-184.158,-98.842,454.905,-262.486,-4.330,582.500,446.760,-1287.220
657,49085.201000,99.365,-198.324,-99.830,467.414,-249.063,0.355,524.500,200.760,-976.220
658,49085.228000,97.407,-202.372,-92.911,467.248,-240.362,5.270,467.500,-27.240,-782.220
659,49085.241000,89.576,-202.372,-80.062,474.788,-229.802,15.953,388.500,-128.240,-678.220
660,49085.261000,84.681,-209.455,-81.050,480.466,-220.187,21.748,262.500,-118.240,-537.220
661,49085.288000,81.744,-211.478,-86.981,488.293,-216.387,19.636,154.500,-94.240,-418.220
662,49085.303000,77.828,-216.538,-91.923,490.171,-213.505,22.553,82.500,-13.240,-275.220
663,49085.326000,77.828,-217.549,-93.900,485.235,-210.560,23.621,56.500,66.760,-196.220
664,49085.348000,88.597,-212.490,-87.969,485.322,-212.491,19.684,5.500,235.760,-48.220
665,49085.371000,88.597,-215.526,-95.876,483.355,-209.570,18.731,-81.500,225.760,108.780
666,49085.389000,79.786,-215.526,-100.819,486.439,-216.363,13.762,-161.500,150.760,241.780
667,49085.407000,73.912,-211.478,-103.784,482.613,-222.130,11.868,-213.500,100.760,358.780
668,49085.423000,70.975,-206.419,-106.749,483.723,-228.907,7.918,-273.500,23.760,468.780
669,49085.451000,60.207,-197.312,-108.726,475.083,-235.593,2.172,-311.500,-24.240,607.780
670,49085.483000,58.249,-191.241,-103.784,467.404,-242.289,-2.606,-331.500,25.760,762.780
671,49085.502000,58.249,-187.194,-104.772,456.912,-256.694,-10.279,-387.500,61.760,911.780
672,49085.516000,47.480,-188.206,-116.633,461.936,-263.506,-14.298,-415.500,74.760,996.780
673,49085.528000,48.459,-180.111,-114.656,442.717,-280.731,-24.767,-438.500,217.760,1152.780
674,49085.551000,61.185,-165.945,-107.737,434.122,-294.190,-29.521,-479.500,347.760,1327.780
675,49085.568000,59.228,-145.708,-118.610,414.946,-312.380,-41.959,-561.500,263.760,1501.780
676,49085.596000,48.459,-149.755,-112.680,397.754,-335.426,-53.441,-608.500,259.760,1678.780
677,49085.613000,39.648,-150.767,-113.668,377.451,-346.840,-60.944,-734.500,306.760,1863.780
678,49085.636000,37.690,-127.494,-127.506,351.486,-363.996,-77.200,-812.500,251.760,1961.780
679,49085.661000,23.985,-110.292,-132.448,337.989,-376.443,-81.869,-876.500,203.760,2107.780
680,49085.678000,5.384,-95.115,-130.471,307.186,-401.295,-97.046,-963.500,278.760,2230.780
681,49085.705000,-20.069,-81.960,-154.193,281.071,-409.749,-109.372,-1024.500,452.760,2261.780
682,49085.720000,-39.648,-81.960,-170.008,249.235,-424.916,-126.511,-1069.500,612.760,2241.780
683,49085.742000,-12.237,-64.759,-160.124,224.290,-435.304,-148.700,-1097.500,855.760,2292.780
684,49085.759000,-16.153,-37.439,-161.112,184.415,-438.797,-159.804,-1223.500,861.760,2310.780
685,49085.777000,-44.543,-14.166,-197.683,134.963,-444.125,-181.565,-1313.500,852.760,2334.780
686,49085.799000,-31.816,-15.178,-224.371,118.511,-444.932,-191.118,-1294.500,979.760,2389.780
687,49085.819000,-13.216,-4.047,-227.336,74.833,-445.479,-210.034,-1325.500,822.760,2371.780
688,49085.840000,-5.384,24.285,-216.463,45.538,-440.370,-215.428,-1340.500,645.760,2391.780
689,49085.857000,-32.795,46.545,-229.313,-3.223,-437.012,-225.398,-1395.500,581.760,2419.780
690,49085.884000,-33.774,60.711,-257.977,-20.811,-432.011,-229.031,-1353.500,661.760,2445.780
691,49085.917000,-17.132,73.866,-248.093,-69.661,-420.915,-238.024,-1276.500,777.760,2545.780
692,49085.936000,4.405,106.245,-230.301,-116.545,-406.932,-249.024,-1314.500,721.760,2619.780
693,49085.944000,5.384,136.601,-238.208,-144.066,-398.947,-245.593,-1404.500,438.760,2753.780
694,49085.965000,-14.195,163.921,-269.838,-192.241,-383.037,-239.837,-1318.500,75.760,2919.780
695,49085.981000,-9.300,175.051,-264.896,-219.927,-370.222,-229.518,-1232.500,-147.240,3100.780
696,49086.1000,-17.132,196.300,-257.977,-266.311,-347.564,-217.895,-1198.500,-431.240,3191.780
697,49086.23000,-41.606,226.656,-275.768,-283.260,-335.815,-205.795,-1096.500,-656.240,3333.780
698,49086.48000,-58.249,247.905,-291.583,-326.858,-306.417,-189.307,-996.500,-695.240,3400.780
699,49086.71000,-55.312,256.000,-274.780,-347.985,-275.290,-172.234,-815.500,-710.240,3492.780
700,49086.93000,-68.038,265.107,-268.849,-389.397,-259.448,-161.675,-680.500,-849.240,3468.780
701,49086.113000,-113.071,254.988,-279.722,-416.362,-220.522,-150.415,-540.500,-851.240,3355.780
702,49086.133000,-135.587,235.763,-288.618,-427.443,-197.213,-144.339,-386.500,-407.240,3210.780
703,49086.148000,-139.503,235.763,-285.652,-447.499,-157.378,-137.140,-281.500,264.760,3062.780
704,49086.171000,-140.482,241.834,-271.815,-450.621,-137.036,-137.108,-200.500,900.760,2959.780
705,49086.191000,-109.155,234.751,-256.000,-462.765,-87.588,-139.905,-168.500,1198.760,2915.780
706,49086.213000,-73.912,214.514,-235.243,-469.905,-67.216,-133.896,-272.500,1164.760,2736.780
707,49086.228000,-48.459,206.419,-224.371,-468.400,-25.640,-130.033,-366.500,803.760,2647.780
708,49086.248000,-33.774,218.561,-224.371,-479.683,10.241,-119.047,-526.500,329.760,2444.780
709,49086.268000,-43.564,235.763,-222.394,-478.819,20.873,-118.090,-586.500,-176.240,2163.780
710,49086.291000,-55.312,230.704,-221.405,-481.206,45.064,-106.262,-537.500,-621.240,1832.780
711,49086.308000,-73.912,217.549,-220.417,-484.265,52.827,-103.264,-438.500,-925.240,1392.780
712,49086.333000,-107.197,215.526,-220.417,-478.526,59.542,-99.436,-302.500,-929.240,927.780
713,49086.353000,-144.398,223.621,-236.232,-483.419,65.393,-102.309,-109.500,-553.240,494.780
714,49086.391000,-169.851,218.561,-244.139,-481.575,66.337,-96.436,46.500,14.760,-5.220
715,49086.399000,-164.956,204.395,-228.324,-479.479,64.391,-103.362,84.500,258.760,-507.220
716,49086.413000,-137.545,200.348,-205.591,-480.412,55.692,-101.367,112.500,499.760,-769.220
717,49086.435000,-112.092,203.383,-194.718,-480.234,34.408,-100.360,98.500,460.760,-1300.220
718,49086.455000,-99.365,221.597,-194.718,-484.015,23.804,-102.250,60.500,347.760,-1787.220
719,49086.475000,-100.344,244.870,-193.730,-482.691,-8.126,-105.189,22.500,361.760,-2239.220
720,49086.496000,-93.491,259.036,-190.764,-482.505,-26.506,-106.156,49.500,537.760,-2511.220
721,49086.513000,-80.765,263.083,-200.649,-477.232,-58.470,-111.134,147.500,739.760,-2695.220
722,49086.538000,-63.143,268.142,-214.486,-474.041,-76.872,-116.091,217.500,849.760,-2823.220
723,49086.556000,-43.564,270.166,-241.174,-459.909,-112.785,-122.206,240.500,682.760,-2957.220
724,49086.578000,-32.795,269.154,-265.884,-442.711,-155.492,-132.305,260.500,476.760,-3020.220
725,49086.596000,-44.543,267.130,-276.757,-439.554,-175.833,-134.306,291.500,-59.240,-3175.220
726,49086.618000,-70.975,284.332,-290.595,-415.592,-218.607,-139.602,266.500,-476.240,-3263.220
727,49086.641000,-88.597,296.474,-295.537,-399.739,-245.840,-136.897,341.500,-617.240,-3338.220
728,49086.658000,-96.428,295.462,-284.664,-365.049,-286.778,-141.401,488.500,-542.240,-3252.220
729,49086.684000,-97.407,274.213,-271.815,-357.017,-305.228,-143.490,655.500,-337.240,-3100.220
730,49086.702000,-92.512,249.929,-269.838,-321.324,-341.334,-151.955,782.500,-167.240,-2998.220
731,49086.728000,-79.786,228.680,-265.884,-302.362,-368.584,-159.150,833.500,-140.240,-3007.220
732,49086.748000,-75.870,208.443,-255.012,-260.076,-382.505,-164.804,829.500,-263.240,-3127.220
733,49086.771000,-88.597,188.206,-245.127,-215.837,-412.899,-161.613,815.500,-334.240,-3220.220
734,49086.788000,-89.576,168.980,-250.069,-183.414,-425.768,-163.156,774.500,-376.240,-3365.220
735,49086.813000,-87.618,153.802,-259.954,-131.376,-445.588,-164.054,769.500,-339.240,-3448.220
736,49086.828000,-80.765,140.648,-248.093,-109.830,-453.526,-161.472,824.500,-297.240,-3497.220
737,49086.851000,-66.080,121.423,-229.313,-48.044,-465.693,-164.520,896.500,-196.240,-3429.220
738,49086.876000,-56.291,109.281,-231.290,-20.679,-469.816,-161.061,945.500,-160.240,-3351.220
739,49086.905000,-38.669,99.162,-229.313,37.970,-471.321,-158.160,1009.500,-207.240,-3332.220
740,49086.918000,-28.880,78.925,-221.405,109.148,-467.145,-147.610,1031.500,-368.240,-3343.220
741,49086.922000,-28.880,62.735,-205.591,134.396,-459.644,-141.175,1035.500,-446.240,-3302.220
742,49086.950000,-32.795,46.545,-186.811,186.938,-448.526,-131.288,1032.500,-401.240,-3256.220
743,49086.967000,-24.964,31.368,-178.903,210.168,-438.107,-122.851,1019.500,-222.240,-3171.220
744,49086.999000,-4.405,10.119,-167.042,263.581,-415.389,-112.994,1021.500,-11.240,-3070.220
745,49087.14000,10.279,-12.142,-151.228,288.846,-404.016,-109.517,992.500,56.760,-2998.220
746,49087.32000,23.985,-24.285,-146.286,335.373,-371.559,-102.502,909.500,51.760,-2895.220
747,49087.69000,46.501,-50.593,-133.436,349.523,-342.685,-88.019,877.500,100.760,-2676.220
748,49087.72000,57.270,-88.032,-124.541,381.612,-330.407,-83.679,823.500,127.760,-2337.220
749,49087.93000,59.228,-124.459,-135.413,411.567,-306.507,-75.377,769.500,219.760,-1909.220
750,49087.121000,56.291,-137.613,-140.355,418.197,-293.998,-69.602,776.500,276.760,-1699.220
751,49087.136000,60.207,-139.636,-132.448,436.436,-269.022,-63.063,776.500,390.760,-1397.220
752,49087.158000,61.185,-152.791,-109.714,449.008,-264.306,-57.384,751.500,302.760,-1164.220
753,49087.176000,63.143,-164.933,-96.865,458.494,-246.990,-49.697,603.500,133.760,-1060.220
754,49087.198000,71.954,-172.016,-90.934,463.246,-239.299,-45.852,493.500,65.760,-947.220
755,49087.218000,67.059,-189.217,-98.842,465.892,-224.823,-37.056,378.500,-28.240,-770.220
756,49087.236000,73.912,-199.336,-96.865,475.529,-218.145,-32.312,281.500,-49.240,-625.220
757,49087.256000,87.618,-196.300,-90.934,478.385,-215.273,-29.412,147.500,-140.240,-467.220
758,49087.277000,89.576,-194.277,-83.027,477.310,-206.558,-28.419,10.500,-228.240,-297.220
759,49087.309000,69.017,-198.324,-102.795,480.262,-206.584,-29.456,-54.500,-264.240,-224.220
760,49087.338000,59.228,-202.372,-110.703,483.180,-206.612,-28.523,-102.500,-148.240,-95.220
761,49087.367000,62.164,-200.348,-113.668,481.266,-203.688,-32.430,-177.500,-42.240,2.780
762,49087.367000,69.017,-198.324,-116.633,479.432,-209.470,-36.329,-263.500,-0.240,91.780
763,49087.377000,59.228,-196.300,-139.367,480.453,-208.509,-39.301,-341.500,-52.240,196.780
764,49087.404000,56.291,-191.241,-149.251,477.674,-212.345,-46.139,-336.500,19.760,314.780
765,49087.422000,64.122,-185.170,-147.274,476.880,-222.973,-51.035,-361.500,31.760,447.780
766,49087.445000,66.080,-177.075,-158.147,463.243,-225.748,-52.759,-358.500,36.760,623.780
767,49087.462000,64.122,-171.004,-155.181,460.666,-240.220,-65.494,-338.500,97.760,847.780
768,49087.483000,61.185,-164.933,-145.297,448.007,-244.941,-66.249,-343.500,279.760,968.780
769,49087.505000,65.101,-154.814,-145.297,439.594,-263.228,-78.877,-360.500,438.760,1204.780
770,49087.520000,72.933,-143.684,-130.471,433.925,-273.811,-84.671,-415.500,607.760,1425.780
771,49087.541000,80.765,-133.565,-128.494,416.776,-295.886,-99.109,-551.500,661.760,1684.780
772,49087.566000,73.912,-116.364,-141.344,390.882,-316.910,-117.330,-610.500,653.760,1915.780
773,49087.586000,74.891,-106.245,-121.575,372.500,-326.409,-123.885,-712.500,617.760,2127.780
774,49087.608000,69.017,-97.138,-103.784,338.823,-354.134,-140.977,-915.500,472.760,2297.780
775,49087.626000,64.122,-76.901,-122.564,324.399,-366.569,-148.583,-1027.500,257.760,2443.780
776,49087.651000,54.333,-64.759,-115.645,283.827,-387.460,-166.545,-1092.500,211.760,2492.780
777,49087.673000,42.585,-42.498,-114.656,260.598,-401.751,-173.009,-1262.500,184.760,2640.780
778,49087.696000,21.048,-14.166,-143.320,207.245,-421.561,-187.793,-1385.500,247.760,2875.780
779,49087.718000,11.258,-1.012,-164.077,178.963,-420.330,-193.201,-1420.500,412.760,3050.780
780,49087.736000,14.195,12.142,-172.973,121.677,-434.298,-209.891,-1500.500,380.760,3063.780
781,49087.763000,22.027,33.391,-192.741,72.962,-439.649,-217.883,-1566.500,174.760,3097.780
782,49087.796000,0.489,56.664,-221.405,36.888,-444.152,-222.162,-1561.500,85.760,3115.780
783,49087.809000,-36.711,71.842,-243.151,-18.939,-439.776,-220.195,-1511.500,140.760,2991.780
784,49087.818000,-43.564,89.043,-261.931,-53.143,-436.559,-223.531,-1475.500,124.760,2865.780
785,49087.832000,-31.816,108.269,-282.687,-105.205,-427.388,-215.730,-1449.500,-57.240,2794.780
786,49087.849000,-43.564,132.553,-287.629,-120.904,-424.344,-214.471,-1346.500,-283.240,2613.780
787,49087.872000,-91.533,153.802,-290.595,-173.027,-414.208,-203.716,-1237.500,-245.240,2541.780
788,49087.894000,-116.008,173.028,-286.641,-207.556,-394.555,-197.221,-1086.500,108.760,2588.780
789,49087.914000,-111.113,187.194,-272.803,-230.151,-380.804,-198.807,-948.500,325.760,2663.780
790,49087.934000,-89.576,194.277,-259.954,-268.629,-357.245,-192.247,-928.500,301.760,2725.780
791,49087.956000,-89.576,213.502,-258.965,-291.249,-348.336,-189.888,-921.500,149.760,2699.780
792,49087.976000,-101.323,230.704,-256.988,-323.071,-315.171,-177.550,-865.500,-116.240,2589.780
793,49087.998000,-98.386,227.668,-254.023,-333.992,-309.275,-171.457,-845.500,-279.240,2444.780
794,49088.16000,-109.155,231.715,-253.035,-358.944,-285.850,-155.292,-771.500,-601.240,2361.780
795,49088.34000,-146.356,236.775,-263.907,-378.690,-276.003,-150.032,-633.500,-684.240,2256.780
796,49088.48000,-143.419,223.621,-260.942,-397.703,-250.692,-138.896,-400.500,-344.240,2156.780
797,49088.76000,-114.050,212.490,-244.139,-403.839,-227.424,-135.861,-223.500,153.760,2040.780
798,49088.98000,-93.491,206.419,-241.174,-422.574,-207.905,-137.522,-170.500,438.760,1855.780
799,49088.121000,-79.786,203.383,-246.116,-433.542,-183.621,-138.341,-137.500,618.760,1736.780
800,49088.143000,-62.164,200.348,-233.266,-429.718,-172.047,-139.406,-97.500,838.760,1677.780
801,49088.161000,-32.795,208.443,-217.452,-439.752,-144.871,-139.261,-121.500,885.760,1670.780
802,49088.177000,-2.447,213.502,-209.544,-451.592,-132.187,-140.050,-131.500,797.760,1707.780
803,49088.203000,-6.363,215.526,-218.440,-457.790,-104.083,-136.036,-159.500,355.760,1732.780
804,49088.228000,-39.648,204.395,-226.347,-465.770,-85.630,-136.901,-144.500,-261.240,1672.780
805,49088.245000,-55.312,187.194,-228.324,-463.980,-76.946,-132.020,-118.500,-642.240,1598.780
806,49088.278000,-68.038,187.194,-233.266,-470.063,-59.482,-128.980,-139.500,-831.240,1367.780
807,49088.287000,-107.197,194.277,-238.208,-468.210,-57.570,-124.092,-93.500,-1003.240,980.780
808,49088.312000,-153.208,180.111,-238.208,-470.194,-54.650,-124.061,56.500,-834.240,624.780
809,49088.332000,-166.914,157.850,-235.243,-469.311,-51.761,-120.142,177.500,-214.240,293.780
810,49088.352000,-137.545,160.885,-222.394,-467.189,-52.737,-129.038,209.500,394.760,-63.220
811,49088.370000,-106.218,181.123,-210.533,-463.258,-52.772,-130.092,215.500,529.760,-248.220
812,49088.392000,-89.576,187.194,-205.591,-464.115,-56.627,-134.995,204.500,489.760,-581.220
813,49088.410000,-83.702,185.170,-200.649,-460.985,-70.194,-138.972,161.500,330.760,-895.220
814,49088.432000,-86.639,191.241,-197.683,-463.885,-75.973,-137.930,76.500,254.760,-1225.220
815,49088.449000,-87.618,206.419,-205.591,-459.697,-98.255,-141.916,28.500,221.760,-1523.220
816,49088.467000,-87.618,221.597,-214.486,-456.690,-107.956,-140.973,26.500,177.760,-1780.220
817,49088.504000,-87.618,228.680,-219.429,-451.549,-131.216,-143.006,32.500,113.760,-1978.220
818,49088.523000,-84.681,238.798,-228.324,-442.547,-150.644,-144.127,45.500,54.760,-2177.220
819,49088.542000,-77.828,257.012,-243.151,-427.508,-180.762,-149.280,91.500,-0.240,-2355.220
820,49088.557000,-78.807,265.107,-259.954,-411.559,-210.893,-150.511,130.500,-145.240,-2421.220
821,49088.580000,-75.870,273.202,-291.583,-410.394,-229.281,-151.495,200.500,-288.240,-2562.220
822,49088.609000,-71.954,290.403,-321.236,-381.671,-265.332,-152.945,304.500,-495.240,-2735.220
823,49088.613000,-93.491,288.379,-324.201,-364.816,-283.861,-156.175,493.500,-742.240,-2788.220
824,49088.642000,-116.008,261.059,-304.432,-331.245,-317.056,-156.730,710.500,-682.240,-2705.220
825,49088.659000,-122.860,241.834,-292.571,-324.202,-328.722,-161.763,900.500,-390.240,-2602.220
826,49088.680000,-109.155,222.609,-282.687,-288.649,-357.093,-166.297,1062.500,-128.240,-2493.220
827,49088.704000,-88.597,197.312,-266.873,-273.585,-382.370,-175.394,1111.500,-115.240,-2559.220
828,49088.724000,-65.101,169.992,-260.942,-225.480,-394.412,-179.184,1100.500,-212.240,-2652.220
829,49088.747000,-67.059,141.660,-254.023,-183.321,-418.987,-172.026,1044.500,-499.240,-2894.220
830,49088.762000,-76.849,125.470,-247.104,-153.764,-429.890,-178.443,983.500,-597.240,-3082.220
831,49088.789000,-82.723,112.316,-244.139,-102.774,-449.705,-175.384,1036.500,-408.240,-3174.220
832,49088.822000,-81.744,92.079,-230.301,-78.199,-450.889,-181.724,1154.500,20.760,-3108.220
833,49088.841000,-72.933,78.925,-219.429,-23.307,-454.285,-186.629,1253.500,471.760,-2972.220
834,49088.849000,-51.396,68.806,-211.521,8.126,-458.435,-192.103,1369.500,785.760,-2835.220
835,49088.863000,-9.300,54.640,-201.637,58.114,-451.140,-201.856,1450.500,744.760,-2714.220
836,49088.887000,5.384,23.273,-187.799,105.980,-442.870,-202.712,1475.500,425.760,-2604.220
837,49088.908000,-13.216,-3.036,-162.100,132.355,-438.273,-203.184,1456.500,345.760,-2555.220
838,49088.925000,-26.922,-7.083,-151.228,176.262,-425.130,-203.976,1392.500,430.760,-2478.220
839,49088.951000,1.468,-13.154,-147.274,200.601,-413.744,-203.436,1385.500,575.760,-2337.220
840,49088.972000,26.922,-35.415,-145.297,241.390,-395.745,-196.303,1298.500,347.760,-2266.220
841,49088.989000,38.669,-60.711,-138.378,263.739,-392.087,-189.811,1157.500,-13.240,-2205.220
842,49089.7000,28.880,-76.901,-137.390,301.522,-370.193,-180.661,1000.500,-243.240,-2177.220
843,49089.16000,27.901,-86.008,-130.471,333.394,-356.960,-164.505,898.500,-343.240,-2068.220
844,49089.35000,40.627,-95.115,-128.494,344.872,-341.595,-157.835,779.500,-465.240,-1911.220
845,49089.67000,44.543,-107.257,-127.506,375.843,-329.316,-145.599,672.500,-583.240,-1787.220
846,49089.90000,23.985,-118.387,-135.413,383.374,-317.789,-134.917,610.500,-560.240,-1720.220
847,49089.108000,7.342,-121.423,-147.274,404.620,-300.578,-128.422,540.500,-282.240,-1523.220
848,49089.130000,9.300,-124.459,-149.251,406.392,-289.960,-123.543,541.500,106.760,-1361.220
849,49089.148000,31.816,-137.613,-140.355,428.694,-271.785,-121.990,512.500,385.760,-1225.220
850,49089.166000,40.627,-149.755,-136.402,435.411,-263.144,-119.166,444.500,472.760,-1124.220
851,49089.188000,51.396,-149.755,-146.286,444.031,-244.844,-118.355,437.500,616.760,-985.220
852,49089.221000,73.912,-160.885,-136.402,461.450,-227.593,-116.715,410.500,628.760,-797.220
853,49089.236000,93.491,-178.087,-125.529,462.436,-226.634,-117.718,331.500,444.760,-616.220
854,49089.258000,108.176,-185.170,-125.529,467.161,-214.105,-114.863,283.500,300.760,-467.220
855,49089.288000,115.029,-184.158,-122.564,464.216,-211.175,-115.798,189.500,-15.240,-406.220
856,49089.327000,98.386,-187.194,-127.506,471.949,-210.284,-111.014,91.500,-293.240,-288.220
857,49089.330000,86.639,-192.253,-132.448,476.738,-210.334,-105.192,32.500,-307.240,-173.220
858,49089.330000,80.765,-188.206,-131.459,474.772,-211.285,-104.172,-20.500,-224.240,-88.220
859,49089.366000,81.744,-180.111,-135.413,465.878,-205.402,-102.052,-43.500,-130.240,24.780
860,49089.370000,83.702,-188.206,-131.459,469.932,-213.173,-106.053,-101.500,-7.240,223.780
861,49089.397000,79.786,-187.194,-140.355,466.149,-217.970,-110.902,-115.500,183.760,383.780
862,49089.419000,90.554,-185.170,-136.402,461.300,-218.890,-112.784,-197.500,200.760,496.780
863,49089.442000,102.302,-180.111,-137.390,452.678,-227.511,-118.528,-248.500,144.760,544.780
864,49089.464000,96.428,-162.909,-146.286,459.685,-237.244,-122.579,-321.500,33.760,665.780
865,49089.479000,87.618,-159.874,-144.309,442.257,-247.720,-127.181,-354.500,-19.240,867.780
866,49089.497000,82.723,-149.755,-135.413,433.617,-254.406,-132.927,-377.500,5.760,1124.780
867,49089.520000,81.744,-136.601,-123.552,417.203,-272.632,-135.568,-424.500,39.760,1320.780
868,49089.542000,71.954,-126.482,-133.436,397.006,-293.720,-144.046,-542.500,-13.240,1517.780
869,49089.562000,52.375,-112.316,-134.425,388.393,-305.244,-148.803,-626.500,-121.240,1669.780
870,49089.583000,38.669,-100.174,-119.598,363.304,-326.286,-157.194,-703.500,-61.240,1834.780
871,49089.611000,31.816,-89.043,-123.552,358.605,-337.846,-162.020,-809.500,14.760,2020.780
872,49089.651000,26.922,-79.937,-126.517,317.947,-364.549,-172.098,-848.500,24.760,2145.780
873,49089.651000,14.195,-78.925,-138.378,301.436,-370.198,-175.737,-919.500,128.760,2379.780
874,49089.667000,3.426,-71.842,-160.124,252.957,-390.054,-189.623,-1027.500,241.760,2549.780
875,49089.692000,-1.468,-62.735,-186.811,208.463,-411.878,-206.530,-1104.500,337.760,2670.780
876,49089.715000,-5.384,-38.451,-190.764,190.002,-416.541,-211.121,-1095.500,429.760,2674.780
877,49089.727000,-10.279,-24.285,-188.788,143.453,-427.705,-228.004,-1098.500,585.760,2647.780
878,49089.752000,-4.405,-22.261,-222.394,112.262,-427.413,-234.344,-1209.500,628.760,2708.780
879,49089.769000,2.447,-8.095,-247.104,62.603,-432.753,-244.288,-1188.500,422.760,2689.780
880,49089.787000,-2.447,9.107,-233.266,38.228,-434.462,-247.793,-1139.500,291.760,2678.780
881,49089.811000,-16.153,21.249,-199.660,-9.694,-429.185,-250.889,-1052.500,281.760,2709.780
882,49089.833000,-36.711,42.498,-242.162,-31.161,-426.082,-255.435,-1177.500,434.760,2794.780
883,49089.853000,-27.901,58.688,-273.792,-81.092,-414.983,-258.502,-1146.500,506.760,2858.780
884,49089.872000,-15.174,75.889,-242.162,-132.999,-401.931,-261.537,-1058.500,467.760,2842.780
885,49089.895000,-15.174,95.115,-224.371,-154.606,-391.093,-262.152,-1162.500,435.760,2808.780
886,49089.917000,-26.922,124.459,-260.942,-206.731,-369.343,-257.317,-1281.500,205.760,2766.780
887,49089.939000,-36.711,135.589,-275.768,-221.602,-359.541,-251.159,-1233.500,-82.240,2684.780
888,49089.958000,-46.501,155.826,-270.826,-263.057,-344.669,-237.645,-1191.500,-265.240,2637.780
889,49089.976000,-69.017,169.992,-270.826,-284.847,-329.001,-230.387,-1149.500,-303.240,2615.780
890,49090.3000,-90.554,173.028,-282.687,-319.593,-306.456,-213.062,-1047.500,-237.240,2624.780
891,49090.17000,-100.344,176.063,-287.629,-346.425,-280.106,-202.774,-907.500,-104.240,2537.780
892,49090.49000,-122.860,185.170,-290.595,-361.306,-263.530,-199.577,-746.500,67.760,2346.780
893,49090.77000,-142.440,163.921,-269.838,-380.172,-239.178,-196.318,-516.500,466.760,2156.780
894,49090.77000,-138.524,136.601,-253.035,-386.106,-226.546,-199.181,-408.500,1005.760,1947.780
895,49090.94000,-111.113,134.577,-269.838,-398.108,-192.577,-201.962,-404.500,1246.760,1666.780
896,49090.117000,-68.038,143.684,-278.734,-412.927,-176.965,-201.718,-423.500,1073.760,1431.780
897,49090.139000,-45.522,162.909,-264.896,-421.972,-158.508,-197.642,-507.500,684.760,1282.780
898,49090.161000,-42.585,187.194,-254.023,-425.154,-141.073,-192.684,-519.500,500.760,1243.780
899,49090.177000,-37.690,194.277,-248.093,-435.115,-129.379,-188.583,-477.500,219.760,1224.780
900,49090.205000,-32.795,196.300,-249.081,-436.392,-113.901,-179.719,-424.500,29.760,1167.780
901,49090.222000,-38.669,205.407,-257.977,-439.415,-110.007,-176.717,-425.500,-98.240,1035.780
902,49090.239000,-43.564,212.490,-256.988,-443.522,-96.432,-172.722,-399.500,-71.240,974.780
903,49090.261000,-38.669,208.443,-251.058,-452.478,-87.649,-168.636,-345.500,-6.240,952.780
904,49090.279000,-40.627,198.324,-248.093,-455.650,-76.989,-160.717,-264.500,-63.240,945.780
905,49090.309000,-42.585,189.217,-251.058,-456.673,-72.143,-160.704,-160.500,-210.240,890.780
906,49090.325000,-50.417,178.087,-248.093,-454.865,-63.458,-156.809,-59.500,-285.240,734.780
907,49090.348000,-66.080,176.063,-242.162,-455.827,-59.576,-159.749,-7.500,-398.240,634.780
908,49090.370000,-89.576,174.040,-236.232,-457.863,-56.659,-156.764,121.500,-364.240,422.780
909,49090.384000,-108.176,164.933,-227.336,-460.651,-59.528,-163.602,235.500,-130.240,173.780
910,49090.407000,-111.113,159.874,-221.405,-459.743,-53.733,-162.640,282.500,164.760,-145.220
911,49090.423000,-102.302,161.897,-222.394,-453.688,-60.552,-169.631,255.500,300.760,-541.220
912,49090.449000,-93.491,173.028,-228.324,-450.665,-68.317,-170.660,202.500,226.760,-927.220
913,49090.472000,-91.533,187.194,-236.232,-448.522,-82.843,-173.634,188.500,107.760,-1267.220
914,49090.492000,-99.365,199.336,-235.243,-447.227,-102.192,-181.510,222.500,76.760,-1572.220
915,49090.506000,-104.260,207.431,-241.174,-441.259,-112.887,-181.603,242.500,84.760,-1670.220
916,49090.548000,-100.344,208.443,-256.000,-429.156,-135.235,-190.651,312.500,62.760,-1846.220
917,49090.555000,-86.639,206.419,-261.931,-420.137,-154.661,-192.757,345.500,-74.240,-2039.220
918,49090.575000,-84.681,210.466,-279.722,-407.037,-184.761,-198.860,380.500,-350.240,-2259.220
919,49090.592000,-87.618,206.419,-289.606,-398.140,-200.322,-196.046,398.500,-657.240,-2471.220
920,49090.609000,-96.428,204.395,-300.479,-377.175,-240.170,-199.323,403.500,-887.240,-2711.220
921,49090.639000,-105.239,211.478,-312.340,-367.299,-257.676,-195.540,437.500,-904.240,-2906.220
922,49090.660000,-123.839,218.561,-318.270,-331.666,-296.689,-199.078,542.500,-634.240,-2977.220
923,49090.663000,-130.692,215.526,-315.305,-303.855,-324.984,-208.397,693.500,-170.240,-2952.220
924,49090.682000,-108.176,202.372,-302.456,-276.201,-343.609,-213.787,760.500,28.760,-2962.220
925,49090.709000,-67.059,193.265,-291.583,-239.775,-366.188,-215.389,855.500,169.760,-3020.220
926,49090.732000,-38.669,189.217,-283.676,-219.882,-376.994,-228.526,919.500,-54.240,-3092.220
927,49090.754000,-32.795,178.087,-263.907,-172.675,-401.606,-230.317,974.500,-344.240,-3124.220
928,49090.777000,-31.816,159.874,-243.151,-144.192,-413.472,-230.807,968.500,-414.240,-3104.220
929,49090.794000,-23.985,139.636,-235.243,-98.138,-430.341,-226.680,986.500,-484.240,-3144.220
930,49090.838000,-19.090,121.423,-230.301,-39.495,-440.558,-218.846,987.500,-672.240,-3145.220
931,49090.841000,-29.859,106.245,-219.429,-12.097,-444.679,-217.357,984.500,-682.240,-3132.220
932,49090.863000,-46.501,88.032,-214.486,40.535,-449.042,-204.500,974.500,-417.240,-3024.220
933,49090.883000,-48.459,71.842,-219.429,72.862,-455.141,-204.081,979.500,-242.240,-2994.220
934,49090.906000,-33.774,59.700,-217.452,116.613,-438.135,-197.984,1019.500,-90.240,-2920.220
935,49090.921000,-5.384,22.261,-250.069,146.903,-441.317,-194.578,996.500,-278.240,-2831.220
936,49090.938000,3.426,-5.059,-226.347,197.331,-426.319,-177.767,1105.500,-545.240,-2810.220
937,49090.968000,-14.195,-17.202,-199.660,216.709,-418.765,-171.228,1131.500,-740.240,-2776.220
938,49090.987000,-22.027,-19.225,-189.776,264.124,-406.648,-148.454,1124.500,-720.240,-2698.220
939,49091.11000,-15.174,-26.308,-183.846,305.640,-385.768,-128.540,1139.500,-491.240,-2544.220
940,49091.25000,-6.363,-37.439,-180.880,324.029,-373.365,-123.957,1128.500,-250.240,-2432.220
941,49091.47000,-15.174,-53.628,-175.938,360.686,-348.568,-107.899,1115.500,-113.240,-2301.220
942,49091.67000,-8.321,-66.783,-153.205,383.032,-335.231,-106.341,1133.500,307.760,-2237.220
943,49091.90000,13.216,-84.996,-125.529,409.030,-308.393,-96.988,1170.500,948.760,-2141.220
944,49091.112000,52.375,-111.304,-108.726,419.545,-285.275,-95.232,1141.500,1283.760,-1998.220
945,49091.129000,88.597,-133.565,-101.807,447.568,-256.516,-90.839,1080.500,1322.760,-1803.220
946,49091.152000,109.155,-149.755,-85.004,464.766,-226.695,-83.303,995.500,1121.760,-1653.220
947,49091.170000,130.692,-165.945,-67.212,473.440,-214.199,-82.487,869.500,823.760,-1434.220
948,49091.187000,164.956,-191.241,-60.293,488.720,-197.909,-69.978,723.500,401.760,-1106.220
949,49091.215000,160.061,-200.348,-67.212,484.682,-190.137,-66.962,522.500,-165.240,-789.220
950,49091.247000,126.776,-191.241,-68.201,492.266,-180.543,-58.248,437.500,-403.240,-695.220
951,49091.266000,96.428,-193.265,-75.120,497.893,-174.802,-47.525,316.500,-694.240,-628.220
952,49091.282000,87.618,-194.277,-80.062,498.731,-167.076,-43.611,154.500,-676.240,-466.220
953,49091.296000,85.660,-202.372,-91.923,508.473,-166.199,-41.816,40.500,-495.240,-325.220
954,49091.316000,95.449,-212.490,-95.876,501.553,-164.205,-38.742,-19.500,-281.240,-158.220
955,49091.340000,96.428,-206.419,-98.842,507.415,-163.291,-38.847,-82.500,-152.240,-54.220
956,49091.356000,80.765,-204.395,-110.703,499.596,-162.252,-39.694,-147.500,-74.240,7.780
957,49091.377000,76.849,-206.419,-114.656,505.624,-166.168,-46.687,-200.500,104.760,113.780
958,49091.400000,83.702,-203.383,-118.610,500.731,-166.123,-46.601,-257.500,251.760,230.780
959,49091.419000,96.428,-197.312,-124.541,498.983,-169.965,-56.410,-274.500,274.760,294.780
960,49091.437000,96.428,-193.265,-124.541,494.143,-173.789,-57.304,-297.500,229.760,452.780
961,49091.460000,89.576,-190.229,-123.552,489.504,-184.378,-66.070,-326.500,226.760,651.780
962,49091.482000,95.449,-180.111,-129.483,483.915,-201.731,-72.842,-375.500,243.760,848.780
963,49091.515000,100.344,-164.933,-124.541,475.317,-207.446,-81.543,-407.500,181.760,1062.780
964,49091.528000,94.470,-149.755,-115.645,459.017,-226.634,-90.092,-451.500,126.760,1287.780
965,49091.547000,91.533,-139.636,-106.749,456.309,-240.145,-95.935,-492.500,124.760,1604.780
966,49091.569000,83.702,-160.885,-112.680,438.149,-268.021,-105.426,-612.500,16.760,1918.780
967,49091.584000,82.723,-157.850,-114.656,421.735,-282.376,-110.041,-685.500,-42.240,1970.780
968,49091.601000,96.428,-131.542,-104.772,394.751,-312.109,-117.405,-846.500,-252.240,1959.780
969,49091.626000,77.828,-105.233,-108.726,384.234,-327.484,-123.107,-1012.500,-644.240,1971.780
970,49091.646000,35.732,-90.055,-133.436,357.136,-350.447,-127.523,-1108.500,-776.240,2075.780
971,49091.667000,17.132,-83.984,-155.181,314.539,-377.132,-138.552,-1112.500,-429.240,2327.780
972,49091.681000,8.321,-71.842,-175.938,296.177,-392.436,-143.131,-1073.500,-106.240,2551.780
973,49091.703000,-15.174,-66.783,-171.985,253.509,-411.381,-154.168,-1014.500,206.760,2625.780
974,49091.726000,-11.258,-47.557,-172.973,233.257,-422.792,-164.625,-1048.500,535.760,2643.780
975,49091.743000,-24.964,-17.202,-202.625,177.858,-430.975,-180.371,-1053.500,665.760,2560.780
976,49091.772000,-62.164,-13.154,-216.463,164.411,-435.676,-191.941,-1051.500,727.760,2496.780
977,49091.791000,-74.891,-18.213,-226.347,120.699,-434.290,-209.874,-1069.500,1030.760,2447.780
978,49091.808000,-62.164,-14.166,-222.394,75.159,-431.910,-235.651,-1103.500,1314.760,2351.780
979,49091.831000,-52.375,-3.036,-233.266,47.890,-428.750,-244.032,-1204.500,1217.760,2271.780
980,49091.857000,-45.522,11.130,-241.174,6.038,-420.612,-260.037,-1245.500,1084.760,2174.780
981,49091.876000,-43.564,39.462,-252.046,-13.499,-412.689,-265.607,-1310.500,901.760,2039.780
982,49091.895000,-51.396,65.771,-265.884,-49.620,-402.676,-274.825,-1301.500,781.760,1972.780
983,49091.923000,-56.291,77.913,-267.861,-72.022,-398.594,-282.309,-1283.500,771.760,1973.780
984,49091.927000,-51.396,87.020,-267.861,-109.303,-385.678,-282.649,-1283.500,783.760,2009.780
985,49091.957000,-36.711,106.245,-277.745,-132.842,-371.917,-286.186,-1278.500,726.760,2038.780
986,49091.980000,-33.774,118.387,-278.734,-166.244,-357.104,-285.613,-1221.500,520.760,2115.780
987,49091.995000,-35.732,125.470,-275.768,-201.655,-344.211,-281.063,-1183.500,260.760,2145.780
988,49092.17000,-34.753,137.613,-290.595,-216.516,-337.313,-273.917,-1147.500,-70.240,2120.780
989,49092.40000,-38.669,151.779,-295.537,-254.992,-323.433,-262.424,-1021.500,-377.240,2124.780
990,49092.60000,-49.438,166.957,-296.525,-271.844,-318.454,-252.287,-913.500,-586.240,2293.780
991,49092.74000,-49.438,180.111,-304.432,-301.575,-299.818,-239.969,-754.500,-620.240,2532.780
992,49092.102000,-37.690,181.123,-279.722,-317.503,-283.237,-232.816,-681.500,-773.240,2602.780
993,49092.133000,-27.901,178.087,-258.965,-351.147,-272.309,-216.482,-661.500,-949.240,2593.780
994,49092.147000,-50.417,168.980,-258.965,-362.443,-253.851,-195.630,-565.500,-1351.240,2488.780
995,49092.166000,-82.723,156.838,-260.942,-382.273,-247.880,-183.473,-447.500,-1359.240,2326.780
996,49092.181000,-114.050,154.814,-252.046,-398.272,-225.495,-175.340,-338.500,-851.240,2146.780
997,49092.190000,-135.587,151.779,-253.035,-412.191,-210.864,-170.189,-204.500,-108.240,2037.780
998,49092.214000,-125.797,129.518,-246.116,-422.156,-185.620,-172.996,-145.500,452.760,1885.780
999,49092.237000,-91.533,122.435,-229.313,-424.237,-172.058,-172.975,-176.500,612.760,1640.780
1000,49092.253000,-70.975,130.530,-220.417,-439.110,-150.642,-172.737,-223.500,486.760,1448.780
