Shimmer,Shimmer,Shimmer,Shimmer,Shimmer,Shimmer,Shimmer,Shimmer,Shimmer,Shimmer,Shimmer,Shimmer,Shimmer,Shimmer,Shimmer,Shimmer,Shimmer,Shimmer,Shimmer,Shimmer
Timestamp,Timestamp,Wide Range Accelerometer X,Wide Range Accelerometer X,Wide Range Accelerometer Y,Wide Range Accelerometer Y,Wide Range Accelerometer Z,Wide Range Accelerometer Z,Gyroscope X,Gyroscope X,Gyroscope Y,Gyroscope Y,Gyroscope Z,Gyroscope Z,Magnetometer X,Magnetometer X,Magnetometer Y,Magnetometer Y,Magnetometer Z,Magnetometer Z
RAW,CAL,RAW,CAL,RAW,CAL,RAW,CAL,RAW,CAL,RAW,CAL,RAW,CAL,RAW,CAL,RAW,CAL,RAW,CAL
no units,mSecs,no units,m/(sec^2),no units,m/(sec^2),no units,m/(sec^2),no units,deg/sec,no units,deg/sec,no units,deg/sec,no units,local,no units,local,no units,local
3377145,10664.0625,-4048,2.4819129368,3456,2.1189454323,-15344,9.4077253219,-9,3.6585365854,-60,0.5487804878,-12,0.7317073171,4,-0.0173913043,-65,-0.2826086957,126,-0.6146341463
3377785,10683.59375,-3904,2.3936235438,3568,2.1876149601,-15344,9.4077253219,-51,4.5731707317,-75,3.1097560976,-19,1.1585365854,1,-0.0043478261,-62,-0.2695652174,126,-0.6146341463
3378425,10703.125,-3712,2.2759043532,3632,2.2268546904,-15280,9.3684855917,-51,4.5731707317,-75,3.1097560976,-19,1.1585365854,4,-0.0173913043,-66,-0.2869565217,129,-0.6292682927
3379065,10722.65625,-3792,2.3249540159,3504,2.1483752299,-15120,9.2703862661,25,3.8414634146,-63,-1.5243902439,-9,0.5487804878,4,-0.0173913043,-69,-0.3,129,-0.6292682927
3379705,10742.1875,-4016,2.4622930717,3536,2.167995095,-15136,9.2801961987,25,3.8414634146,-63,-1.5243902439,-9,0.5487804878,6,-0.0260869565,-64,-0.2782608696,129,-0.6292682927
3380345,10761.71875,-3968,2.4328632741,3408,2.0895156346,-15200,9.3194359289,11,3.2926829268,-54,-0.6707317073,0,0,4,-0.0173913043,-68,-0.2956521739,127,-0.6195121951
3380985,10781.25,-3840,2.3543838136,3504,2.1483752299,-15200,9.3194359289,0,3.1707317073,-52,0,9,-0.5487804878,6,-0.0260869565,-68,-0.2956521739,128,-0.6243902439
3381625,10800.78125,-3824,2.3445738811,3504,2.1483752299,-15152,9.2900061312,0,3.1707317073,-52,0,9,-0.5487804878,5,-0.0217391304,-64,-0.2782608696,129,-0.6292682927
3382265,10820.3125,-3840,2.3543838136,3456,2.1189454323,-15168,9.2998160638,12,2.8048780488,-46,-0.7317073171,2,-0.1219512195,6,-0.0260869565,-64,-0.2782608696,128,-0.6243902439
3382905,10839.84375,-3856,2.3641937462,3552,2.1778050276,-15200,9.3194359289,2,2.9268292683,-48,-0.1219512195,-8,0.487804878,6,-0.0260869565,-69,-0.3,129,-0.6292682927
3383545,10859.375,-3872,2.3740036787,3632,2.2268546904,-15296,9.3782955242,2,2.9268292683,-48,-0.1219512195,-8,0.487804878,5,-0.0217391304,-64,-0.2782608696,128,-0.6243902439
3384185,10878.90625,-3872,2.3740036787,3552,2.1778050276,-15376,9.427345187,2,2.743902439,-45,-0.1219512195,-1,0.0609756098,5,-0.0217391304,-65,-0.2826086957,129,-0.6292682927
3384825,10898.4375,-3920,2.4034334764,3520,2.1581851625,-15232,9.339055794,2,2.743902439,-45,-0.1219512195,-1,0.0609756098,5,-0.0217391304,-64,-0.2782608696,127,-0.6195121951
3385465,10917.96875,-3984,2.4426732066,3552,2.1778050276,-15200,9.3194359289,-2,3.6585365854,-60,0.1219512195,-16,0.9756097561,6,-0.0260869565,-67,-0.2913043478,128,-0.6243902439
3386105,10937.5,-3904,2.3936235438,3584,2.1974248927,-15216,9.3292458614,-13,3.4756097561,-57,0.7926829268,-15,0.9146341463,7,-0.0304347826,-68,-0.2956521739,129,-0.6292682927
3386745,10957.03125,-3856,2.3641937462,3520,2.1581851625,-15184,9.3096259963,-13,3.4756097561,-57,0.7926829268,-15,0.9146341463,7,-0.0304347826,-65,-0.2826086957,128,-0.6243902439
3387385,10976.5625,-3888,2.3838136113,3552,2.1778050276,-15120,9.2703862661,44,2.1951219512,-36,-2.6829268293,11,-0.6707317073,6,-0.0260869565,-65,-0.2826086957,128,-0.6243902439
3388025,10996.09375,-4080,2.501532802,3568,2.1876149601,-15120,9.2703862661,44,2.1951219512,-36,-2.6829268293,11,-0.6707317073,5,-0.0217391304,-68,-0.2956521739,128,-0.6243902439
3388665,11015.625,-4112,2.5211526671,3568,2.1876149601,-15200,9.3194359289,4,1.8902439024,-31,-0.243902439,11,-0.6707317073,5,-0.0217391304,-67,-0.2913043478,128,-0.6243902439
3389305,11035.15625,-3840,2.3543838136,3424,2.0993255671,-15136,9.2801961987,-38,2.1951219512,-36,2.3170731707,8,-0.487804878,5,-0.0217391304,-65,-0.2826086957,129,-0.6292682927
3389945,11054.6875,-3744,2.2955242183,3488,2.1385652974,-15152,9.2900061312,-38,2.1951219512,-36,2.3170731707,8,-0.487804878,7,-0.0304347826,-66,-0.2869565217,127,-0.6195121951
3390585,11074.21875,-3840,2.3543838136,3568,2.1876149601,-15200,9.3194359289,23,1.7682926829,-29,-1.4024390244,13,-0.7926829268,4,-0.0173913043,-65,-0.2826086957,129,-0.6292682927
3391225,11093.75,-3872,2.3740036787,3552,2.1778050276,-15328,9.3979153893,12,1.5853658537,-26,-0.7317073171,-4,0.243902439,5,-0.0217391304,-66,-0.2869565217,127,-0.6195121951
3391865,11113.28125,-3824,2.3445738811,3520,2.1581851625,-15376,9.427345187,12,1.5853658537,-26,-0.7317073171,-4,0.243902439,3,-0.0130434783,-61,-0.2652173913,127,-0.6195121951
3392505,11132.8125,-3920,2.4034334764,3456,2.1189454323,-15280,9.3684855917,23,1.9512195122,-32,-1.4024390244,-1,0.0609756098,6,-0.0260869565,-63,-0.2739130435,127,-0.6195121951
3393145,11152.34375,-3984,2.4426732066,3520,2.1581851625,-15312,9.3881054568,23,1.9512195122,-32,-1.4024390244,-1,0.0609756098,4,-0.0173913043,-63,-0.2739130435,128,-0.6243902439
3393785,11171.875,-3920,2.4034334764,3536,2.167995095,-15376,9.427345187,-11,2.6219512195,-43,0.6707317073,-3,0.1829268293,4,-0.0173913043,-63,-0.2739130435,128,-0.6243902439
3394425,11191.40625,-3808,2.3347639485,3424,2.0993255671,-15312,9.3881054568,-7,2.6829268293,-44,0.4268292683,2,-0.1219512195,3,-0.0130434783,-59,-0.2565217391,127,-0.6195121951
3395065,11210.9375,-3824,2.3445738811,3424,2.0993255671,-15328,9.3979153893,-7,2.6829268293,-44,0.4268292683,2,-0.1219512195,6,-0.0260869565,-65,-0.2826086957,127,-0.6195121951
3395705,11230.46875,-3920,2.4034334764,3488,2.1385652974,-15232,9.339055794,42,2.5609756098,-42,-2.5609756098,6,-0.3658536585,4,-0.0173913043,-65,-0.2826086957,128,-0.6243902439
3396345,11250,-4080,2.501532802,3488,2.1385652974,-15216,9.3292458614,42,2.5609756098,-42,-2.5609756098,6,-0.3658536585,5,-0.0217391304,-64,-0.2782608696,127,-0.6195121951
3396985,11269.53125,-3840,2.3543838136,3552,2.1778050276,-15152,9.2900061312,-46,3.2926829268,-54,2.8048780488,-13,0.7926829268,3,-0.0130434783,-62,-0.2695652174,127,-0.6195121951
3397625,11289.0625,-3728,2.2857142857,3632,2.2268546904,-15136,9.2801961987,-25,3.2926829268,-54,1.5243902439,-28,1.7073170732,5,-0.0217391304,-68,-0.2956521739,127,-0.6195121951
3398265,11308.59375,-3840,2.3543838136,3520,2.1581851625,-15088,9.250766401,-25,3.2926829268,-54,1.5243902439,-28,1.7073170732,3,-0.0130434783,-63,-0.2739130435,128,-0.6243902439
3398905,11328.125,-3840,2.3543838136,3440,2.1091354997,-15184,9.3096259963,25,2.5,-41,-1.5243902439,-13,0.7926829268,5,-0.0217391304,-64,-0.2782608696,128,-0.6243902439
3399545,11347.65625,-3936,2.413243409,3504,2.1483752299,-15264,9.3586756591,25,2.5,-41,-1.5243902439,-13,0.7926829268,5,-0.0217391304,-65,-0.2826086957,127,-0.6195121951
3400185,11367.1875,-4032,2.4721030043,3552,2.1778050276,-15200,9.3194359289,36,2.5,-41,-2.1951219512,-8,0.487804878,4,-0.0173913043,-63,-0.2739130435,126,-0.6146341463
3400825,11386.71875,-4032,2.4721030043,3552,2.1778050276,-15184,9.3096259963,-25,2.6829268293,-44,1.5243902439,-6,0.3658536585,4,-0.0173913043,-60,-0.2608695652,128,-0.6243902439
3401465,11406.25,-3840,2.3543838136,3520,2.1581851625,-15296,9.3782955242,-25,2.6829268293,-44,1.5243902439,-6,0.3658536585,4,-0.0173913043,-64,-0.2782608696,127,-0.6195121951
3402105,11425.78125,-3744,2.2955242183,3472,2.1287553648,-15232,9.339055794,6,2.1951219512,-36,-0.3658536585,-5,0.3048780488,5,-0.0217391304,-67,-0.2913043478,129,-0.6292682927
3402745,11445.3125,-3808,2.3347639485,3360,2.0600858369,-15200,9.3194359289,31,1.8902439024,-31,-1.8902439024,-7,0.4268292683,6,-0.0260869565,-66,-0.2869565217,127,-0.6195121951
3403385,11464.84375,-3984,2.4426732066,3360,2.0600858369,-15152,9.2900061312,31,1.8902439024,-31,-1.8902439024,-7,0.4268292683,3,-0.0130434783,-62,-0.2695652174,127,-0.6195121951
3404025,11484.375,-3952,2.4230533415,3344,2.0502759044,-15120,9.2703862661,-11,2.5,-41,0.6707317073,-18,1.0975609756,4,-0.0173913043,-64,-0.2782608696,128,-0.6243902439
3404665,11503.90625,-3904,2.3936235438,3472,2.1287553648,-15184,9.3096259963,-11,2.5,-41,0.6707317073,-18,1.0975609756,6,-0.0260869565,-63,-0.2739130435,129,-0.6292682927
3405305,11523.4375,-3808,2.3347639485,3472,2.1287553648,-15232,9.339055794,-1,2.012195122,-33,0.0609756098,-20,1.2195121951,7,-0.0304347826,-68,-0.2956521739,128,-0.6243902439
3405945,11542.96875,-3952,2.4230533415,3440,2.1091354997,-15344,9.4077253219,30,1.5243902439,-25,-1.8292682927,-1,0.0609756098,6,-0.0260869565,-68,-0.2956521739,128,-0.6243902439
3406585,11562.5,-4064,2.4917228694,3424,2.0993255671,-15392,9.4371551196,30,1.5243902439,-25,-1.8292682927,-1,0.0609756098,4,-0.0173913043,-64,-0.2782608696,128,-0.6243902439
3407225,11582.03125,-4032,2.4721030043,3440,2.1091354997,-15472,9.4862047823,8,2.5,-41,-0.487804878,1,-0.0609756098,5,-0.0217391304,-64,-0.2782608696,129,-0.6292682927
3407865,11601.5625,-4032,2.4721030043,3488,2.1385652974,-15392,9.4371551196,8,2.5,-41,-0.487804878,1,-0.0609756098,4,-0.0173913043,-60,-0.2608695652,126,-0.6146341463
3408505,11621.09375,-4032,2.4721030043,3488,2.1385652974,-15424,9.4567749847,2,3.2317073171,-53,-0.1219512195,-10,0.6097560976,4,-0.0173913043,-61,-0.2652173913,126,-0.6146341463
3409145,11640.625,-3984,2.4426732066,3488,2.1385652974,-15376,9.427345187,-21,3.5975609756,-59,1.2804878049,-16,0.9756097561,5,-0.0217391304,-65,-0.2826086957,127,-0.6195121951
3409785,11660.15625,-3872,2.3740036787,3536,2.167995095,-15328,9.3979153893,-21,3.5975609756,-59,1.2804878049,-16,0.9756097561,6,-0.0260869565,-64,-0.2782608696,127,-0.6195121951
3410425,11679.6875,-3824,2.3445738811,3472,2.1287553648,-15248,9.3488657265,31,3.3536585366,-55,-1.8902439024,6,-0.3658536585,5,-0.0217391304,-61,-0.2652173913,125,-0.6097560976
3411065,11699.21875,-4032,2.4721030043,3456,2.1189454323,-15120,9.2703862661,20,2.9268292683,-48,-1.2195121951,8,-0.487804878,5,-0.0217391304,-66,-0.2869565217,129,-0.6292682927
3411705,11718.75,-4048,2.4819129368,3424,2.0993255671,-15072,9.2409564684,20,2.9268292683,-48,-1.2195121951,8,-0.487804878,7,-0.0304347826,-64,-0.2782608696,127,-0.6195121951
3412345,11738.28125,-3936,2.413243409,3488,2.1385652974,-15152,9.2900061312,-3,3.2926829268,-54,0.1829268293,3,-0.1829268293,7,-0.0304347826,-64,-0.2782608696,126,-0.6146341463
3412985,11757.8125,-3872,2.3740036787,3392,2.079705702,-15136,9.2801961987,-3,3.2926829268,-54,0.1829268293,3,-0.1829268293,4,-0.0173913043,-67,-0.2913043478,128,-0.6243902439
3413625,11777.34375,-3856,2.3641937462,3440,2.1091354997,-15120,9.2703862661,11,2.6829268293,-44,-0.6707317073,0,0,3,-0.0130434783,-64,-0.2782608696,125,-0.6097560976
3414265,11796.875,-3904,2.3936235438,3440,2.1091354997,-15104,9.2605763335,1,2.5609756098,-42,-0.0609756098,-5,0.3048780488,3,-0.0130434783,-61,-0.2652173913,127,-0.6195121951
3414905,11816.40625,-3856,2.3641937462,3488,2.1385652974,-15152,9.2900061312,1,2.5609756098,-42,-0.0609756098,-5,0.3048780488,7,-0.0304347826,-66,-0.2869565217,127,-0.6195121951
3415545,11835.9375,-3808,2.3347639485,3440,2.1091354997,-15136,9.2801961987,-12,2.3170731707,-38,0.7317073171,-18,1.0975609756,5,-0.0217391304,-67,-0.2913043478,129,-0.6292682927
3416185,11855.46875,-3872,2.3740036787,3536,2.167995095,-15152,9.2900061312,-12,2.3170731707,-38,0.7317073171,-18,1.0975609756,5,-0.0217391304,-66,-0.2869565217,126,-0.6146341463
3416825,11875,-3856,2.3641937462,3536,2.167995095,-15168,9.2998160638,-9,2.1951219512,-36,0.5487804878,-22,1.3414634146,4,-0.0173913043,-60,-0.2608695652,126,-0.6146341463
3417465,11894.53125,-3840,2.3543838136,3600,2.2072348253,-15040,9.2213366033,6,1.6463414634,-27,-0.3658536585,-20,1.2195121951,3,-0.0130434783,-61,-0.2652173913,127,-0.6195121951
3418105,11914.0625,-3920,2.4034334764,3488,2.1385652974,-15072,9.2409564684,6,1.6463414634,-27,-0.3658536585,-20,1.2195121951,5,-0.0217391304,-64,-0.2782608696,127,-0.6195121951
3418745,11933.59375,-3952,2.4230533415,3520,2.1581851625,-15040,9.2213366033,12,0.8536585366,-14,-0.7317073171,-21,1.2804878049,5,-0.0217391304,-62,-0.2695652174,128,-0.6243902439
3419385,11953.125,-4080,2.501532802,3472,2.1287553648,-15072,9.2409564684,-19,1.0365853659,-17,1.1585365854,-24,1.4634146341,7,-0.0304347826,-67,-0.2913043478,128,-0.6243902439
3420025,11972.65625,-4016,2.4622930717,3472,2.1287553648,-14944,9.162477008,-19,1.0365853659,-17,1.1585365854,-24,1.4634146341,3,-0.0130434783,-59,-0.2565217391,127,-0.6195121951
3420665,11992.1875,-3952,2.4230533415,3456,2.1189454323,-14992,9.1919068056,-28,0.487804878,-8,1.7073170732,-34,2.0731707317,5,-0.0217391304,-62,-0.2695652174,128,-0.6243902439
3421305,12011.71875,-3984,2.4426732066,3424,2.0993255671,-15072,9.2409564684,-28,0.487804878,-8,1.7073170732,-34,2.0731707317,5,-0.0217391304,-64,-0.2782608696,128,-0.6243902439
3421945,12031.25,-4048,2.4819129368,3568,2.1876149601,-15008,9.2017167382,6,0.1219512195,-2,-0.3658536585,-26,1.5853658537,4,-0.0173913043,-67,-0.2913043478,129,-0.6292682927
3422585,12050.78125,-4144,2.5407725322,3552,2.1778050276,-15040,9.2213366033,-3,-0.487804878,8,0.1829268293,-14,0.8536585366,5,-0.0217391304,-64,-0.2782608696,127,-0.6195121951
3423225,12070.3125,-4144,2.5407725322,3408,2.0895156346,-15024,9.2115266708,-3,-0.487804878,8,0.1829268293,-14,0.8536585366,3,-0.0130434783,-61,-0.2652173913,127,-0.6195121951
3423865,12089.84375,-3984,2.4426732066,3312,2.0306560392,-15072,9.2409564684,-23,-1.1585365854,19,1.4024390244,-2,0.1219512195,6,-0.0260869565,-63,-0.2739130435,128,-0.6243902439
3424505,12109.375,-3904,2.3936235438,3280,2.0110361741,-15136,9.2801961987,-23,-1.1585365854,19,1.4024390244,-2,0.1219512195,5,-0.0217391304,-60,-0.2608695652,127,-0.6195121951
3425145,12128.90625,-3936,2.413243409,3280,2.0110361741,-15248,9.3488657265,20,-1.8292682927,30,-1.2195121951,10,-0.6097560976,4,-0.0173913043,-62,-0.2695652174,127,-0.6195121951
3425785,12148.4375,-4096,2.5113427345,3184,1.9521765788,-15168,9.2998160638,-27,-1.8292682927,30,1.6463414634,4,-0.243902439,6,-0.0260869565,-63,-0.2739130435,129,-0.6292682927
3426425,12167.96875,-4112,2.5211526671,3232,1.9816063765,-15056,9.2311465359,-27,-1.8292682927,30,1.6463414634,4,-0.243902439,3,-0.0130434783,-62,-0.2695652174,128,-0.6243902439
3427065,12187.5,-3904,2.3936235438,3296,2.0208461067,-15120,9.2703862661,-82,-1.0975609756,18,5,-27,1.6463414634,2,-0.0086956522,-62,-0.2695652174,128,-0.6243902439
3427705,12207.03125,-3712,2.2759043532,3248,1.991416309,-15120,9.2703862661,-82,-1.0975609756,18,5,-27,1.6463414634,4,-0.0173913043,-65,-0.2826086957,130,-0.6341463415
3428345,12226.5625,-3776,2.3151440834,3184,1.9521765788,-15264,9.3586756591,-7,-2.6219512195,43,0.4268292683,-6,0.3658536585,7,-0.0304347826,-65,-0.2826086957,129,-0.6292682927
3428985,12246.09375,-3936,2.413243409,3184,1.9521765788,-15312,9.3881054568,26,-2.8658536585,47,-1.5853658537,-4,0.243902439,5,-0.0217391304,-64,-0.2782608696,128,-0.6243902439
3429625,12265.625,-4016,2.4622930717,3200,1.9619865113,-15312,9.3881054568,26,-2.8658536585,47,-1.5853658537,-4,0.243902439,6,-0.0260869565,-65,-0.2826086957,130,-0.6341463415
3430265,12285.15625,-3936,2.413243409,3072,1.8835070509,-15344,9.4077253219,-48,-2.3170731707,38,2.9268292683,-9,0.5487804878,6,-0.0260869565,-61,-0.2652173913,130,-0.6341463415
3430905,12304.6875,-3776,2.3151440834,3056,1.8736971183,-15344,9.4077253219,-68,-1.7682926829,29,4.1463414634,-20,1.2195121951,3,-0.0130434783,-59,-0.2565217391,128,-0.6243902439
3431545,12324.21875,-3712,2.2759043532,3056,1.8736971183,-15280,9.3684855917,-68,-1.7682926829,29,4.1463414634,-20,1.2195121951,3,-0.0130434783,-57,-0.247826087,128,-0.6243902439
3432185,12343.75,-3664,2.2464745555,2960,1.814837523,-15248,9.3488657265,-51,-1.5243902439,25,3.1097560976,-35,2.1341463415,4,-0.0173913043,-61,-0.2652173913,130,-0.6341463415
3432825,12363.28125,-3632,2.2268546904,3008,1.8442673207,-15152,9.2900061312,-51,-1.5243902439,25,3.1097560976,-35,2.1341463415,5,-0.0217391304,-59,-0.2565217391,131,-0.6390243902
3433465,12382.8125,-3712,2.2759043532,2912,1.7854077253,-15088,9.250766401,-42,-2.0731707317,34,2.5609756098,-43,2.6219512195,4,-0.0173913043,-64,-0.2782608696,130,-0.6341463415
3434105,12402.34375,-3744,2.2955242183,2896,1.7755977928,-15120,9.2703862661,-41,-3.2317073171,53,2.5,-45,2.743902439,4,-0.0173913043,-62,-0.2695652174,129,-0.6292682927
3434745,12421.875,-3776,2.3151440834,2944,1.8050275904,-15232,9.339055794,-41,-3.2317073171,53,2.5,-45,2.743902439,3,-0.0130434783,-61,-0.2652173913,129,-0.6292682927
3435385,12441.40625,-3760,2.3053341508,2848,1.7461679951,-15376,9.427345187,-34,-4.1463414634,68,2.0731707317,-35,2.1341463415,4,-0.0173913043,-63,-0.2739130435,131,-0.6390243902
3436025,12460.9375,-3728,2.2857142857,2736,1.6774984672,-15568,9.5450643777,-34,-4.1463414634,68,2.0731707317,-35,2.1341463415,4,-0.0173913043,-58,-0.252173913,129,-0.6292682927
3436665,12480.46875,-3824,2.3445738811,2688,1.6480686695,-15664,9.603923973,-13,-3.9634146341,65,0.7926829268,-24,1.4634146341,5,-0.0217391304,-60,-0.2608695652,130,-0.6341463415
3437305,12500,-3856,2.3641937462,2592,1.5892090742,-15696,9.6235438381,-45,-2.5609756098,42,2.743902439,-34,2.0731707317,5,-0.0217391304,-60,-0.2608695652,131,-0.6390243902
3437945,12519.53125,-3856,2.3641937462,2480,1.5205395463,-15808,9.692213366,-45,-2.5609756098,42,2.743902439,-34,2.0731707317,5,-0.0217391304,-62,-0.2695652174,132,-0.643902439
3438585,12539.0625,-3760,2.3053341508,2368,1.4518700184,-15872,9.7314530963,-40,-0.6707317073,11,2.4390243902,-49,2.987804878,3,-0.0130434783,-62,-0.2695652174,132,-0.643902439
3439225,12558.59375,-3744,2.2955242183,2352,1.4420600858,-15824,9.7020232986,-12,0.1219512195,-2,0.7317073171,-53,3.2317073171,5,-0.0217391304,-60,-0.2608695652,130,-0.6341463415
3439865,12578.125,-3808,2.3347639485,2384,1.461679951,-15840,9.7118332311,-12,0.1219512195,-2,0.7317073171,-53,3.2317073171,2,-0.0086956522,-55,-0.2391304348,130,-0.6341463415
3440505,12597.65625,-3824,2.3445738811,2416,1.4812998161,-15728,9.6431637032,-15,0.8536585366,-14,0.9146341463,-46,2.8048780488,3,-0.0130434783,-63,-0.2739130435,132,-0.643902439
3441145,12617.1875,-3872,2.3740036787,2464,1.5107296137,-15664,9.603923973,-15,0.8536585366,-14,0.9146341463,-46,2.8048780488,2,-0.0086956522,-63,-0.2739130435,132,-0.643902439
3441785,12636.71875,-3840,2.3543838136,2416,1.4812998161,-15568,9.5450643777,-47,1.0975609756,-18,2.8658536585,-34,2.0731707317,4,-0.0173913043,-62,-0.2695652174,131,-0.6390243902
3442425,12656.25,-3680,2.256284488,2416,1.4812998161,-15504,9.5058246475,-19,1.1585365854,-19,1.1585365854,-20,1.2195121951,2,-0.0086956522,-56,-0.2434782609,131,-0.6390243902
3443065,12675.78125,-3712,2.2759043532,2464,1.5107296137,-15440,9.4665849172,-19,1.1585365854,-19,1.1585365854,-20,1.2195121951,4,-0.0173913043,-58,-0.252173913,132,-0.643902439
3443705,12695.3125,-3872,2.3740036787,2384,1.461679951,-15392,9.4371551196,-7,0.9146341463,-15,0.4268292683,-11,0.6707317073,3,-0.0130434783,-58,-0.252173913,132,-0.643902439
3444345,12714.84375,-3840,2.3543838136,2400,1.4714898835,-15280,9.3684855917,-7,0.9146341463,-15,0.4268292683,-11,0.6707317073,5,-0.0217391304,-63,-0.2739130435,132,-0.643902439
3444985,12734.375,-3616,2.2170447578,2320,1.4224402207,-15280,9.3684855917,-55,0.9756097561,-16,3.3536585366,-8,0.487804878,4,-0.0173913043,-57,-0.247826087,129,-0.6292682927
3445625,12753.90625,-3536,2.167995095,2240,1.3733905579,-15216,9.3292458614,-23,-0.1829268293,3,1.4024390244,13,-0.7926829268,4,-0.0173913043,-58,-0.252173913,132,-0.643902439
3446265,12773.4375,-3776,2.3151440834,2128,1.30472103,-15024,9.2115266708,-23,-0.1829268293,3,1.4024390244,13,-0.7926829268,3,-0.0130434783,-57,-0.247826087,132,-0.643902439
3446905,12792.96875,-3744,2.2955242183,2096,1.2851011649,-15168,9.2998160638,-61,-1.0365853659,17,3.7195121951,0,0,5,-0.0217391304,-62,-0.2695652174,132,-0.643902439
3447545,12812.5,-3472,2.1287553648,2208,1.3537706928,-15168,9.2998160638,-72,-1.7073170732,28,4.3902439024,-6,0.3658536585,4,-0.0173913043,-61,-0.2652173913,133,-0.6487804878
3448185,12832.03125,-3376,2.0698957695,2144,1.3145309626,-15152,9.2900061312,-72,-1.7073170732,28,4.3902439024,-6,0.3658536585,3,-0.0130434783,-59,-0.2565217391,133,-0.6487804878
3448825,12851.5625,-3552,2.1778050276,2096,1.2851011649,-15232,9.339055794,-3,-3.3536585366,55,0.1829268293,-4,0.243902439,3,-0.0130434783,-58,-0.252173913,132,-0.643902439
3449465,12871.09375,-3568,2.1876149601,2096,1.2851011649,-15568,9.5450643777,-3,-3.3536585366,55,0.1829268293,-4,0.243902439,5,-0.0217391304,-61,-0.2652173913,134,-0.6536585366
3450105,12890.625,-3424,2.0993255671,2048,1.2556713673,-15680,9.6137339056,-32,-3.0487804878,50,1.9512195122,-5,0.3048780488,3,-0.0130434783,-55,-0.2391304348,132,-0.643902439
3450745,12910.15625,-3488,2.1385652974,2048,1.2556713673,-15792,9.6824034335,20,-2.6219512195,43,-1.2195121951,6,-0.3658536585,4,-0.0173913043,-58,-0.252173913,132,-0.643902439
3451385,12929.6875,-3728,2.2857142857,2048,1.2556713673,-15824,9.7020232986,20,-2.6219512195,43,-1.2195121951,6,-0.3658536585,2,-0.0086956522,-57,-0.247826087,133,-0.6487804878
3452025,12949.21875,-3728,2.2857142857,2016,1.2360515021,-15936,9.7706928265,-25,-1.3414634146,22,1.5243902439,11,-0.6707317073,3,-0.0130434783,-59,-0.2565217391,133,-0.6487804878
3452665,12968.75,-3728,2.2857142857,1952,1.1968117719,-16064,9.8491722869,-25,-1.3414634146,22,1.5243902439,11,-0.6707317073,2,-0.0086956522,-61,-0.2652173913,134,-0.6536585366
3453305,12988.28125,-3568,2.1876149601,1920,1.1771919068,-16016,9.8197424893,-35,0,0,2.1341463415,18,-1.0975609756,4,-0.0173913043,-60,-0.2608695652,133,-0.6487804878
3453945,13007.8125,-3600,2.2072348253,1920,1.1771919068,-15968,9.7903126916,-16,1.1585365854,-19,0.9756097561,17,-1.0365853659,2,-0.0086956522,-56,-0.2434782609,133,-0.6487804878
3454585,13027.34375,-3680,2.256284488,1968,1.2066217045,-15888,9.7412630288,-16,1.1585365854,-19,0.9756097561,17,-1.0365853659,1,-0.0043478261,-59,-0.2565217391,132,-0.643902439
3455225,13046.875,-3568,2.1876149601,2000,1.2262415696,-15840,9.7118332311,-49,2.6219512195,-43,2.987804878,8,-0.487804878,2,-0.0086956522,-57,-0.247826087,134,-0.6536585366
3455865,13066.40625,-3472,2.1287553648,1984,1.216431637,-15696,9.6235438381,-49,2.6219512195,-43,2.987804878,8,-0.487804878,3,-0.0130434783,-60,-0.2608695652,133,-0.6487804878
3456505,13085.9375,-3520,2.1581851625,1952,1.1968117719,-15600,9.5646842428,-30,3.2317073171,-53,1.8292682927,11,-0.6707317073,4,-0.0173913043,-61,-0.2652173913,133,-0.6487804878
3457145,13105.46875,-3488,2.1385652974,1904,1.1673819742,-15552,9.5352544451,-25,3.3536585366,-55,1.5243902439,16,-0.9756097561,0,0,-54,-0.2347826087,134,-0.6536585366
3457785,13125,-3440,2.1091354997,1936,1.1870018394,-15424,9.4567749847,-25,3.3536585366,-55,1.5243902439,16,-0.9756097561,2,-0.0086956522,-56,-0.2434782609,133,-0.6487804878
3458425,13144.53125,-3456,2.1189454323,1984,1.216431637,-15264,9.3586756591,7,2.743902439,-45,-0.4268292683,29,-1.7682926829,2,-0.0086956522,-57,-0.247826087,131,-0.6390243902
3459065,13164.0625,-3536,2.167995095,2000,1.2262415696,-15312,9.3881054568,-10,2.3780487805,-39,0.6097560976,27,-1.6463414634,3,-0.0130434783,-60,-0.2608695652,135,-0.6585365854
3459705,13183.59375,-3408,2.0895156346,2064,1.2654812998,-15440,9.4665849172,-10,2.3780487805,-39,0.6097560976,27,-1.6463414634,1,-0.0043478261,-58,-0.252173913,132,-0.643902439
3460345,13203.125,-3216,1.9717964439,2064,1.2654812998,-15584,9.5548743102,-20,1.9512195122,-32,1.2195121951,26,-1.5853658537,0,0,-57,-0.247826087,132,-0.643902439
3460985,13222.65625,-3232,1.9816063765,1936,1.1870018394,-15600,9.5646842428,-20,1.9512195122,-32,1.2195121951,26,-1.5853658537,4,-0.0173913043,-61,-0.2652173913,134,-0.6536585366
3461625,13242.1875,-3280,2.0110361741,1984,1.216431637,-15552,9.5352544451,15,2.0731707317,-34,-0.9146341463,31,-1.8902439024,5,-0.0217391304,-61,-0.2652173913,135,-0.6585365854
3462265,13261.71875,-3392,2.079705702,2000,1.2262415696,-15536,9.5254445126,-14,2.1951219512,-36,0.8536585366,18,-1.0975609756,0,0,-56,-0.2434782609,132,-0.643902439
3462905,13281.25,-3360,2.0600858369,2032,1.2458614347,-15552,9.5352544451,-14,2.1951219512,-36,0.8536585366,18,-1.0975609756,1,-0.0043478261,-57,-0.247826087,132,-0.643902439
3463545,13300.78125,-3296,2.0208461067,2096,1.2851011649,-15520,9.51563458,-45,2.4390243902,-40,2.743902439,24,-1.4634146341,2,-0.0086956522,-60,-0.2608695652,134,-0.6536585366
3464185,13320.3125,-3088,1.8933169834,2000,1.2262415696,-15584,9.5548743102,-45,2.4390243902,-40,2.743902439,24,-1.4634146341,1,-0.0043478261,-61,-0.2652173913,135,-0.6585365854
3464825,13339.84375,-3104,1.903126916,1936,1.1870018394,-15536,9.5254445126,3,1.7682926829,-29,-0.1829268293,33,-2.012195122,0,0,-53,-0.2304347826,133,-0.6487804878
3465465,13359.375,-3200,1.9619865113,2016,1.2360515021,-15584,9.5548743102,19,1.8292682927,-30,-1.1585365854,6,-0.3658536585,4,-0.0173913043,-60,-0.2608695652,132,-0.643902439
3466105,13378.90625,-3280,2.0110361741,1952,1.1968117719,-15632,9.5843041079,19,1.8292682927,-30,-1.1585365854,6,-0.3658536585,1,-0.0043478261,-62,-0.2695652174,135,-0.6585365854
3466745,13398.4375,-3216,1.9717964439,1936,1.1870018394,-15664,9.603923973,-9,2.4390243902,-40,0.5487804878,-5,0.3048780488,0,0,-56,-0.2434782609,132,-0.643902439
3467385,13417.96875,-3296,2.0208461067,1936,1.1870018394,-15712,9.6333537707,-6,2.4390243902,-40,0.3658536585,-17,1.0365853659,1,-0.0043478261,-59,-0.2565217391,133,-0.6487804878
3468025,13437.5,-3296,2.0208461067,1840,1.128142244,-15680,9.6137339056,-6,2.4390243902,-40,0.3658536585,-17,1.0365853659,3,-0.0130434783,-58,-0.252173913,135,-0.6585365854
3468665,13457.03125,-3296,2.0208461067,1984,1.216431637,-15760,9.6627835684,-3,2.8658536585,-47,0.1829268293,-12,0.7317073171,2,-0.0086956522,-56,-0.2434782609,135,-0.6585365854
3469305,13476.5625,-3456,2.1189454323,2048,1.2556713673,-15648,9.5941140405,-3,2.8658536585,-47,0.1829268293,-12,0.7317073171,3,-0.0130434783,-61,-0.2652173913,134,-0.6536585366
3469945,13496.09375,-3488,2.1385652974,2000,1.2262415696,-15648,9.5941140405,3,3.2317073171,-53,-0.1829268293,-5,0.3048780488,4,-0.0173913043,-62,-0.2695652174,134,-0.6536585366
3470585,13515.625,-3440,2.1091354997,2272,1.3930104231,-15552,9.5352544451,-34,3.6585365854,-60,2.0731707317,-18,1.0975609756,3,-0.0130434783,-58,-0.252173913,134,-0.6536585366
3471225,13535.15625,-3296,2.0208461067,2032,1.2458614347,-15552,9.5352544451,-34,3.6585365854,-60,2.0731707317,-18,1.0975609756,-1,0.0043478261,-56,-0.2434782609,134,-0.6536585366
3471865,13554.6875,-3408,2.0895156346,2000,1.2262415696,-15424,9.4567749847,22,2.8658536585,-47,-1.3414634146,-9,0.5487804878,2,-0.0086956522,-58,-0.252173913,133,-0.6487804878
3472505,13574.21875,-3520,2.1581851625,2048,1.2556713673,-15584,9.5548743102,22,2.8658536585,-47,-1.3414634146,-9,0.5487804878,-1,0.0043478261,-61,-0.2652173913,135,-0.6585365854
3473145,13593.75,128,-0.0784794605,-15344,-9.4077253219,6224,-3.8160637646,19,3.0487804878,-50,-1.1585365854,2,-0.1219512195,2,-0.0086956522,-58,-0.252173913,133,-0.6487804878
3473785,13613.28125,-2432,1.4911097486,1008,0.6180257511,-8832,5.4150827713,989,-8.2317073171,135,-60.3048780488,-171,10.4268292683,2,-0.0086956522,-55,-0.2391304348,131,-0.6390243902
3474425,13632.8125,-5616,3.4432863274,4416,2.7075413857,-13632,8.3580625383,989,-8.2317073171,135,-60.3048780488,-171,10.4268292683,7,-0.0304347826,-58,-0.252173913,129,-0.6292682927
3475065,13652.34375,-7040,4.316370325,3776,2.3151440834,-15264,9.3586756591,-189,-5.6707317073,93,11.5243902439,156,-9.512195122,4,-0.0173913043,-60,-0.2608695652,129,-0.6292682927
3475705,13671.875,-5872,3.6002452483,2336,1.4322501533,-15808,9.692213366,-947,4.3292682927,-71,57.743902439,114,-6.9512195122,3,-0.0130434783,-55,-0.2391304348,130,-0.6341463415
3476345,13691.40625,-3808,2.3347639485,512,0.3139178418,-15872,9.7314530963,-947,4.3292682927,-71,57.743902439,114,-6.9512195122,0,0,-56,-0.2434782609,132,-0.643902439
3476985,13710.9375,-2240,1.3733905579,432,0.264868179,-15920,9.7608828939,-268,4.1463414634,-68,16.3414634146,-36,2.1951219512,1,-0.0043478261,-59,-0.2565217391,135,-0.6585365854
3477625,13730.46875,-2400,1.4714898835,1792,1.0987124464,-16432,10.0748007357,-268,4.1463414634,-68,16.3414634146,-36,2.1951219512,1,-0.0043478261,-60,-0.2608695652,136,-0.6634146341
3478265,13750,-3168,1.9423666462,1632,1.0006131208,-16592,10.1729000613,126,1.7682926829,-29,-7.6829268293,33,-2.012195122,0,0,-53,-0.2304347826,133,-0.6487804878
3478905,13769.53125,-3424,2.0993255671,1568,0.9613733906,-16272,9.9767014102,97,5.0609756098,-83,-5.9146341463,6,-0.3658536585,3,-0.0130434783,-59,-0.2565217391,134,-0.6536585366
3479545,13789.0625,-3376,2.0698957695,1664,1.0202329859,-15936,9.7706928265,97,5.0609756098,-83,-5.9146341463,6,-0.3658536585,1,-0.0043478261,-59,-0.2565217391,134,-0.6536585366
3480185,13808.59375,-3600,2.2072348253,1632,1.0006131208,-15904,9.7510729614,26,5.487804878,-90,-1.5853658537,-7,0.4268292683,1,-0.0043478261,-59,-0.2565217391,132,-0.643902439
3480825,13828.125,-3648,2.2366646229,1600,0.9809932557,-15824,9.7020232986,26,5.487804878,-90,-1.5853658537,-7,0.4268292683,4,-0.0173913043,-60,-0.2608695652,133,-0.6487804878
3481465,13847.65625,-3504,2.1483752299,1664,1.0202329859,-15584,9.5548743102,-118,7.256097561,-119,7.1951219512,-42,2.5609756098,1,-0.0043478261,-59,-0.2565217391,133,-0.6487804878
3482105,13867.1875,-3328,2.0404659718,1840,1.128142244,-15408,9.4469650521,-70,6.8292682927,-112,4.2682926829,-31,1.8902439024,2,-0.0086956522,-60,-0.2608695652,134,-0.6536585366
3482745,13886.71875,-3184,1.9521765788,1888,1.1575720417,-15520,9.51563458,-70,6.8292682927,-112,4.2682926829,-31,1.8902439024,0,0,-58,-0.252173913,135,-0.6585365854
3483385,13906.25,-3280,2.0110361741,1920,1.1771919068,-15360,9.4175352544,38,5.8536585366,-96,-2.3170731707,-9,0.5487804878,0,0,-56,-0.2434782609,131,-0.6390243902
3484025,13925.78125,-3424,2.0993255671,1984,1.216431637,-15200,9.3194359289,38,5.8536585366,-96,-2.3170731707,-9,0.5487804878,3,-0.0130434783,-61,-0.2652173913,133,-0.6487804878
3484665,13945.3125,-3568,2.1876149601,1968,1.2066217045,-15200,9.3194359289,47,4.9390243902,-81,-2.8658536585,-15,0.9146341463,2,-0.0086956522,-56,-0.2434782609,133,-0.6487804878
3485305,13964.84375,-3488,2.1385652974,1968,1.2066217045,-15168,9.2998160638,-21,4.6341463415,-76,1.2804878049,-10,0.6097560976,2,-0.0086956522,-58,-0.252173913,135,-0.6585365854
3485945,13984.375,-3392,2.079705702,1968,1.2066217045,-15216,9.3292458614,-21,4.6341463415,-76,1.2804878049,-10,0.6097560976,2,-0.0086956522,-61,-0.2652173913,135,-0.6585365854
3486585,14003.90625,-8896,5.4543225015,4688,2.8743102391,-1248,0.7651747394,-848,-92.256097561,1513,51.7073170732,-50,3.0487804878,2,-0.0086956522,-56,-0.2434782609,134,-0.6536585366
3487225,14023.4375,-4272,2.6192519926,2560,1.5695892091,-11712,7.1808706315,503,0.7926829268,-13,-30.6707317073,168,-10.243902439,1,-0.0043478261,-55,-0.2391304348,131,-0.6390243902
3487865,14042.96875,-5536,3.3942366646,2896,1.7755977928,-14752,9.0447578173,503,0.7926829268,-13,-30.6707317073,168,-10.243902439,3,-0.0130434783,-59,-0.2565217391,131,-0.6390243902
3488505,14062.5,-5568,3.4138565297,2560,1.5695892091,-15696,9.6235438381,-404,0.6097560976,-10,24.6341463415,83,-5.0609756098,5,-0.0217391304,-60,-0.2608695652,133,-0.6487804878
3489145,14082.03125,-4064,2.4917228694,1824,1.1183323115,-15984,9.8001226242,-404,0.6097560976,-10,24.6341463415,83,-5.0609756098,3,-0.0130434783,-61,-0.2652173913,134,-0.6536585366
3489785,14101.5625,-2576,1.5793991416,1408,0.863274065,-16272,9.9767014102,-427,7.9268292683,-130,26.0365853659,38,-2.3170731707,3,-0.0130434783,-58,-0.252173913,133,-0.6487804878
3490425,14121.09375,-2304,1.4126302882,1104,0.6768853464,-16224,9.9472716125,184,2.0731707317,-34,-11.2195121951,94,-5.7317073171,2,-0.0086956522,-58,-0.252173913,134,-0.6536585366
3491065,14140.625,-3200,1.9619865113,1456,0.8927038627,-16544,10.1434702636,184,2.0731707317,-34,-11.2195121951,94,-5.7317073171,2,-0.0086956522,-60,-0.2608695652,135,-0.6585365854
3491705,14160.15625,-3648,2.2366646229,1856,1.1379521766,-16304,9.9963212753,123,6.0975609756,-100,-7.5,-6,0.3658536585,0,0,-60,-0.2608695652,134,-0.6536585366
3492345,14179.6875,-3568,2.1876149601,1792,1.0987124464,-15856,9.7216431637,123,6.0975609756,-100,-7.5,-6,0.3658536585,3,-0.0130434783,-58,-0.252173913,133,-0.6487804878
3492985,14199.21875,-3456,2.1189454323,1824,1.1183323115,-15568,9.5450643777,12,7.4390243902,-122,-0.7317073171,0,0,4,-0.0173913043,-60,-0.2608695652,133,-0.6487804878
3493625,14218.75,-3520,2.1581851625,1920,1.1771919068,-15504,9.5058246475,-79,7.6219512195,-125,4.8170731707,-21,1.2804878049,0,0,-57,-0.247826087,133,-0.6487804878
3494265,14238.28125,-3344,2.0502759044,1936,1.1870018394,-15328,9.3979153893,-79,7.6219512195,-125,4.8170731707,-21,1.2804878049,-1,0.0043478261,-57,-0.247826087,133,-0.6487804878
3494905,14257.8125,-3104,1.903126916,2064,1.2654812998,-15168,9.2998160638,-68,7.1341463415,-117,4.1463414634,-39,2.3780487805,3,-0.0130434783,-62,-0.2695652174,133,-0.6487804878
3495545,14277.34375,-3184,1.9521765788,2128,1.30472103,-15152,9.2900061312,40,5.5487804878,-91,-2.4390243902,-21,1.2804878049,0,0,-55,-0.2391304348,132,-0.643902439
3496185,14296.875,-3232,1.9816063765,2192,1.3439607603,-15200,9.3194359289,40,5.5487804878,-91,-2.4390243902,-21,1.2804878049,2,-0.0086956522,-56,-0.2434782609,133,-0.6487804878
3496825,14316.40625,-3392,2.079705702,2176,1.3341508277,-15104,9.2605763335,43,4.1463414634,-68,-2.6219512195,-15,0.9146341463,3,-0.0130434783,-58,-0.252173913,133,-0.6487804878
3497465,14335.9375,-3408,2.0895156346,2176,1.3341508277,-15136,9.2801961987,43,4.1463414634,-68,-2.6219512195,-15,0.9146341463,1,-0.0043478261,-52,-0.2260869565,132,-0.643902439
3498105,14355.46875,-3488,2.1385652974,2176,1.3341508277,-15200,9.3194359289,7,2.8048780488,-46,-0.4268292683,-19,1.1585365854,1,-0.0043478261,-53,-0.2304347826,132,-0.643902439
3498745,14375,-3504,2.1483752299,2192,1.3439607603,-15344,9.4077253219,-13,2.5,-41,0.7926829268,-10,0.6097560976,2,-0.0086956522,-57,-0.247826087,135,-0.6585365854
3499385,14394.53125,12544,-7.6909871245,-10880,-6.6707541386,-24016,14.7247087676,-13,2.5,-41,0.7926829268,-10,0.6097560976,2,-0.0086956522,-57,-0.247826087,132,-0.643902439
3500025,14414.0625,-352,0.2158185162,4480,2.7467811159,-15424,9.4567749847,569,-53.9634146341,885,-34.6951219512,-26,1.5853658537,4,-0.0173913043,-54,-0.2347826087,129,-0.6292682927
3500665,14433.59375,-5024,3.0803188228,5600,3.4334763948,-14720,9.0251379522,569,-53.9634146341,885,-34.6951219512,-26,1.5853658537,4,-0.0173913043,-57,-0.247826087,128,-0.6243902439
3501305,14453.125,-8256,5.0619251993,4240,2.5996321275,-15488,9.4960147149,443,-21.9512195122,360,-27.012195122,273,-16.6463414634,4,-0.0173913043,-54,-0.2347826087,129,-0.6292682927
3501945,14472.65625,-7984,4.8951563458,2640,1.6186388719,-16224,9.9472716125,-1346,-3.2926829268,54,82.0731707317,262,-15.9756097561,5,-0.0217391304,-54,-0.2347826087,129,-0.6292682927
3502585,14492.1875,-1184,0.7259350092,-1280,-0.7847946045,-17648,10.8203556101,-1346,-3.2926829268,54,82.0731707317,262,-15.9756097561,3,-0.0130434783,-59,-0.2565217391,133,-0.6487804878
3503225,14511.71875,256,-0.1569589209,-128,-0.0784794605,-16160,9.9080318823,-733,10.9146341463,-179,44.6951219512,-172,10.487804878,0,0,-57,-0.247826087,134,-0.6536585366
3503865,14531.25,-1088,0.6670754139,1552,0.951563458,-16544,10.1434702636,635,-1.6463414634,27,-38.7195121951,64,-3.9024390244,-1,0.0043478261,-56,-0.2434782609,135,-0.6585365854
3504505,14550.78125,-3344,2.0502759044,1872,1.1477621091,-16928,10.378908645,635,-1.6463414634,27,-38.7195121951,64,-3.9024390244,0,0,-57,-0.247826087,131,-0.6390243902
3505145,14570.3125,-4304,2.6388718578,1760,1.0790925812,-16528,10.1336603311,179,6.7682926829,-111,-10.9146341463,-13,0.7926829268,1,-0.0043478261,-58,-0.252173913,132,-0.643902439
3505785,14589.84375,-3856,2.3641937462,1936,1.1870018394,-15952,9.780502759,179,6.7682926829,-111,-10.9146341463,-13,0.7926829268,0,0,-54,-0.2347826087,132,-0.643902439
3506425,14609.375,-3616,2.2170447578,1808,1.1085223789,-15696,9.6235438381,-50,8.1707317073,-134,3.0487804878,-31,1.8902439024,2,-0.0086956522,-54,-0.2347826087,132,-0.643902439
3507065,14628.90625,-3328,2.0404659718,1664,1.0202329859,-15536,9.5254445126,-131,6.9512195122,-114,7.987804878,-49,2.987804878,0,0,-57,-0.247826087,132,-0.643902439
3507705,14648.4375,-3264,2.0012262416,1760,1.0790925812,-15424,9.4567749847,-131,6.9512195122,-114,7.987804878,-49,2.987804878,1,-0.0043478261,-55,-0.2391304348,133,-0.6487804878
3508345,14667.96875,-3200,1.9619865113,2064,1.2654812998,-15248,9.3488657265,-102,6.5243902439,-107,6.2195121951,-45,2.743902439,0,0,-54,-0.2347826087,133,-0.6487804878
3508985,14687.5,-3056,1.8736971183,2032,1.2458614347,-15264,9.3586756591,-102,6.5243902439,-107,6.2195121951,-45,2.743902439,3,-0.0130434783,-60,-0.2608695652,133,-0.6487804878
3509625,14707.03125,-3120,1.9129368486,2032,1.2458614347,-15296,9.3782955242,39,5.487804878,-90,-2.3780487805,-37,2.256097561,2,-0.0086956522,-57,-0.247826087,134,-0.6536585366
3510265,14726.5625,-3344,2.0502759044,1952,1.1968117719,-15280,9.3684855917,53,4.5731707317,-75,-3.2317073171,-31,1.8902439024,2,-0.0086956522,-57,-0.247826087,134,-0.6536585366
3510905,14746.09375,-3520,2.1581851625,1968,1.2066217045,-15344,9.4077253219,53,4.5731707317,-75,-3.2317073171,-31,1.8902439024,3,-0.0130434783,-61,-0.2652173913,133,-0.6487804878
3511545,14765.625,-3536,2.167995095,2000,1.2262415696,-15456,9.4763948498,33,4.1463414634,-68,-2.012195122,-25,1.5243902439,3,-0.0130434783,-57,-0.247826087,131,-0.6390243902
3512185,14785.15625,-3504,2.1483752299,2000,1.2262415696,-15408,9.4469650521,33,4.1463414634,-68,-2.012195122,-25,1.5243902439,2,-0.0086956522,-57,-0.247826087,134,-0.6536585366
3512825,14804.6875,-3456,2.1189454323,2048,1.2556713673,-15264,9.3586756591,-40,4.3902439024,-72,2.4390243902,-12,0.7317073171,3,-0.0130434783,-58,-0.252173913,133,-0.6487804878
3513465,14824.21875,-3184,1.9521765788,2000,1.2262415696,-15360,9.4175352544,-41,3.9024390244,-64,2.5,-46,2.8048780488,4,-0.0173913043,-61,-0.2652173913,134,-0.6536585366
3514105,14843.75,-3200,1.9619865113,2016,1.2360515021,-15456,9.4763948498,-41,3.9024390244,-64,2.5,-46,2.8048780488,4,-0.0173913043,-61,-0.2652173913,134,-0.6536585366
3514745,14863.28125,-3344,2.0502759044,1968,1.2066217045,-15456,9.4763948498,60,3.1097560976,-51,-3.6585365854,-37,2.256097561,0,0,-56,-0.2434782609,132,-0.643902439
3515385,14882.8125,-3632,2.2268546904,1904,1.1673819742,-15552,9.5352544451,42,2.8658536585,-47,-2.5609756098,-30,1.8292682927,2,-0.0086956522,-57,-0.247826087,133,-0.6487804878
3516025,14902.34375,-3680,2.256284488,2048,1.2556713673,-15504,9.5058246475,42,2.8658536585,-47,-2.5609756098,-30,1.8292682927,4,-0.0173913043,-59,-0.2565217391,133,-0.6487804878
3516665,14921.875,-3584,2.1974248927,1984,1.216431637,-15424,9.4567749847,-52,3.2317073171,-53,3.1707317073,-27,1.6463414634,2,-0.0086956522,-57,-0.247826087,132,-0.643902439
3517305,14941.40625,-3280,2.0110361741,1952,1.1968117719,-15344,9.4077253219,-52,3.2317073171,-53,3.1707317073,-27,1.6463414634,4,-0.0173913043,-57,-0.247826087,133,-0.6487804878
3517945,14960.9375,-3248,1.991416309,2016,1.2360515021,-15504,9.5058246475,-19,2.9268292683,-48,1.1585365854,-38,2.3170731707,3,-0.0130434783,-57,-0.247826087,133,-0.6487804878
3518585,14980.46875,-3360,2.0600858369,1984,1.216431637,-15552,9.5352544451,72,2.0731707317,-34,-4.3902439024,-26,1.5853658537,0,0,-62,-0.2695652174,135,-0.6585365854
3519225,15000,-3728,2.2857142857,1872,1.1477621091,-15552,9.5352544451,72,2.0731707317,-34,-4.3902439024,-26,1.5853658537,1,-0.0043478261,-58,-0.252173913,133,-0.6487804878
3519865,15019.53125,-3808,2.3347639485,1904,1.1673819742,-15680,9.6137339056,8,2.5,-41,-0.487804878,-25,1.5243902439,2,-0.0086956522,-59,-0.2565217391,132,-0.643902439
3520505,15039.0625,-3632,2.2268546904,1936,1.1870018394,-15664,9.603923973,8,2.5,-41,-0.487804878,-25,1.5243902439,4,-0.0173913043,-60,-0.2608695652,133,-0.6487804878
3521145,15058.59375,-3424,2.0993255671,1888,1.1575720417,-15664,9.603923973,-45,2.9268292683,-48,2.743902439,-13,0.7926829268,2,-0.0086956522,-56,-0.2434782609,132,-0.643902439
3521785,15078.125,-3376,2.0698957695,1872,1.1477621091,-15648,9.5941140405,22,2.987804878,-49,-1.3414634146,-17,1.0365853659,3,-0.0130434783,-57,-0.247826087,133,-0.6487804878
3522425,15097.65625,-3552,2.1778050276,1904,1.1673819742,-15680,9.6137339056,22,2.987804878,-49,-1.3414634146,-17,1.0365853659,3,-0.0130434783,-56,-0.2434782609,132,-0.643902439
3523065,15117.1875,-3584,2.1974248927,1936,1.1870018394,-15712,9.6333537707,17,3.9024390244,-64,-1.0365853659,-25,1.5243902439,4,-0.0173913043,-60,-0.2608695652,133,-0.6487804878
3523705,15136.71875,-3600,2.2072348253,2000,1.2262415696,-15632,9.5843041079,-6,4.512195122,-74,0.3658536585,-23,1.4024390244,3,-0.0130434783,-57,-0.247826087,133,-0.6487804878
3524345,15156.25,-3568,2.1876149601,2016,1.2360515021,-15568,9.5450643777,-6,4.512195122,-74,0.3658536585,-23,1.4024390244,2,-0.0086956522,-58,-0.252173913,133,-0.6487804878
3524985,15175.78125,-3600,2.2072348253,2032,1.2458614347,-15552,9.5352544451,6,4.512195122,-74,-0.3658536585,1,-0.0609756098,2,-0.0086956522,-53,-0.2304347826,132,-0.643902439
3525625,15195.3125,-3632,2.2268546904,2080,1.2752912324,-15488,9.4960147149,6,4.512195122,-74,-0.3658536585,1,-0.0609756098,3,-0.0130434783,-56,-0.2434782609,133,-0.6487804878
3526265,15214.84375,-3488,2.1385652974,2128,1.30472103,-15456,9.4763948498,-12,4.2682926829,-70,0.7317073171,-3,0.1829268293,3,-0.0130434783,-58,-0.252173913,133,-0.6487804878
3526905,15234.375,-3424,2.0993255671,2080,1.2752912324,-15408,9.4469650521,25,3.6585365854,-60,-1.5243902439,4,-0.243902439,3,-0.0130434783,-58,-0.252173913,133,-0.6487804878
3527545,15253.90625,-3408,2.0895156346,2000,1.2262415696,-15456,9.4763948498,25,3.6585365854,-60,-1.5243902439,4,-0.243902439,4,-0.0173913043,-59,-0.2565217391,132,-0.643902439
3528185,15273.4375,-3440,2.1091354997,2048,1.2556713673,-15360,9.4175352544,50,3.5365853659,-58,-3.0487804878,1,-0.0609756098,4,-0.0173913043,-61,-0.2652173913,135,-0.6585365854
3528825,15292.96875,-3408,2.0895156346,1984,1.216431637,-15360,9.4175352544,50,3.5365853659,-58,-3.0487804878,1,-0.0609756098,2,-0.0086956522,-55,-0.2391304348,131,-0.6390243902
3529465,15312.5,-3488,2.1385652974,2016,1.2360515021,-15488,9.4960147149,25,3.2926829268,-54,-1.5243902439,-3,0.1829268293,4,-0.0173913043,-58,-0.252173913,133,-0.6487804878
3530105,15332.03125,-3392,2.079705702,2112,1.2949110975,-15504,9.5058246475,21,3.2926829268,-54,-1.2804878049,-21,1.2804878049,2,-0.0086956522,-58,-0.252173913,134,-0.6536585366
3530745,15351.5625,-3472,2.1287553648,2096,1.2851011649,-15520,9.51563458,21,3.2926829268,-54,-1.2804878049,-21,1.2804878049,3,-0.0130434783,-60,-0.2608695652,133,-0.6487804878
3531385,15371.09375,-3488,2.1385652974,2128,1.30472103,-15536,9.5254445126,0,3.8414634146,-63,0,-23,1.4024390244,5,-0.0217391304,-59,-0.2565217391,132,-0.643902439
3532025,15390.625,-3456,2.1189454323,2128,1.30472103,-15552,9.5352544451,-2,4.0243902439,-66,0.1219512195,-25,1.5243902439,4,-0.0173913043,-59,-0.2565217391,134,-0.6536585366
3532665,15410.15625,-3440,2.1091354997,2096,1.2851011649,-15552,9.5352544451,-2,4.0243902439,-66,0.1219512195,-25,1.5243902439,2,-0.0086956522,-60,-0.2608695652,133,-0.6487804878
3533305,15429.6875,-3520,2.1581851625,2080,1.2752912324,-15456,9.4763948498,19,4.2682926829,-70,-1.1585365854,-31,1.8902439024,4,-0.0173913043,-56,-0.2434782609,134,-0.6536585366
3533945,15449.21875,-3520,2.1581851625,2128,1.30472103,-15504,9.5058246475,19,4.2682926829,-70,-1.1585365854,-31,1.8902439024,2,-0.0086956522,-62,-0.2695652174,132,-0.643902439
3534585,15468.75,-3568,2.1876149601,2112,1.2949110975,-15456,9.4763948498,25,4.0243902439,-66,-1.5243902439,-30,1.8292682927,2,-0.0086956522,-57,-0.247826087,132,-0.643902439
3535225,15488.28125,-3568,2.1876149601,2032,1.2458614347,-15392,9.4371551196,12,3.2926829268,-54,-0.7317073171,-17,1.0365853659,3,-0.0130434783,-55,-0.2391304348,133,-0.6487804878
3535865,15507.8125,-3584,2.1974248927,2080,1.2752912324,-15456,9.4763948498,12,3.2926829268,-54,-0.7317073171,-17,1.0365853659,4,-0.0173913043,-60,-0.2608695652,133,-0.6487804878
3536505,15527.34375,-3552,2.1778050276,2064,1.2654812998,-15472,9.4862047823,24,2.6829268293,-44,-1.4634146341,-5,0.3048780488,4,-0.0173913043,-61,-0.2652173913,133,-0.6487804878
3537145,15546.875,-3648,2.2366646229,2064,1.2654812998,-15568,9.5450643777,24,2.6829268293,-44,-1.4634146341,-5,0.3048780488,3,-0.0130434783,-56,-0.2434782609,132,-0.643902439
3537785,15566.40625,-3664,2.2464745555,2032,1.2458614347,-15552,9.5352544451,13,2.8048780488,-46,-0.7926829268,-9,0.5487804878,3,-0.0130434783,-54,-0.2347826087,130,-0.6341463415
3538425,15585.9375,-3536,2.167995095,2064,1.2654812998,-15552,9.5352544451,-8,3.9634146341,-65,0.487804878,-25,1.5243902439,4,-0.0173913043,-59,-0.2565217391,133,-0.6487804878
3539065,15605.46875,-3488,2.1385652974,2032,1.2458614347,-15648,9.5941140405,-8,3.9634146341,-65,0.487804878,-25,1.5243902439,3,-0.0130434783,-61,-0.2652173913,133,-0.6487804878
3539705,15625,-3504,2.1483752299,2064,1.2654812998,-15552,9.5352544451,14,4.0243902439,-66,-0.8536585366,-18,1.0975609756,3,-0.0130434783,-56,-0.2434782609,132,-0.643902439
3540345,15644.53125,-3504,2.1483752299,2064,1.2654812998,-15552,9.5352544451,14,4.0243902439,-66,-0.8536585366,-18,1.0975609756,4,-0.0173913043,-56,-0.2434782609,132,-0.643902439
3540985,15664.0625,-3472,2.1287553648,2128,1.30472103,-15552,9.5352544451,26,3.7195121951,-61,-1.5853658537,-25,1.5243902439,3,-0.0130434783,-59,-0.2565217391,132,-0.643902439
3541625,15683.59375,-3600,2.2072348253,2064,1.2654812998,-15504,9.5058246475,26,3.6585365854,-60,-1.5853658537,-20,1.2195121951,4,-0.0173913043,-58,-0.252173913,133,-0.6487804878
3542265,15703.125,-3760,2.3053341508,2000,1.2262415696,-15520,9.51563458,26,3.6585365854,-60,-1.5853658537,-20,1.2195121951,2,-0.0086956522,-56,-0.2434782609,132,-0.643902439
3542905,15722.65625,-3696,2.2660944206,2048,1.2556713673,-15552,9.5352544451,-27,4.6341463415,-76,1.6463414634,-41,2.5,5,-0.0217391304,-56,-0.2434782609,132,-0.643902439
3543545,15742.1875,-3520,2.1581851625,2128,1.30472103,-15504,9.5058246475,24,4.1463414634,-68,-1.4634146341,-30,1.8292682927,2,-0.0086956522,-60,-0.2608695652,133,-0.6487804878
3544185,15761.71875,-3584,2.1974248927,2048,1.2556713673,-15488,9.4960147149,24,4.1463414634,-68,-1.4634146341,-30,1.8292682927,3,-0.0130434783,-61,-0.2652173913,133,-0.6487804878
3544825,15781.25,-3712,2.2759043532,2000,1.2262415696,-15376,9.427345187,28,3.7195121951,-61,-1.7073170732,-23,1.4024390244,5,-0.0217391304,-59,-0.2565217391,132,-0.643902439
3545465,15800.78125,-3840,2.3543838136,2112,1.2949110975,-15440,9.4665849172,28,3.7195121951,-61,-1.7073170732,-23,1.4024390244,3,-0.0130434783,-59,-0.2565217391,131,-0.6390243902
3546105,15820.3125,-3776,2.3151440834,2176,1.3341508277,-15392,9.4371551196,-5,3.9024390244,-64,0.3048780488,-15,0.9146341463,2,-0.0086956522,-58,-0.252173913,132,-0.643902439
3546745,15839.84375,-3712,2.2759043532,2144,1.3145309626,-15312,9.3881054568,-19,4.0243902439,-66,1.1585365854,-23,1.4024390244,4,-0.0173913043,-56,-0.2434782609,132,-0.643902439
3547385,15859.375,-3696,2.2660944206,2096,1.2851011649,-15264,9.3586756591,-19,4.0243902439,-66,1.1585365854,-23,1.4024390244,5,-0.0217391304,-61,-0.2652173913,132,-0.643902439
3548025,15878.90625,-3584,2.1974248927,2016,1.2360515021,-15344,9.4077253219,24,3.2926829268,-54,-1.4634146341,-17,1.0365853659,5,-0.0217391304,-61,-0.2652173913,133,-0.6487804878
3548665,15898.4375,-3664,2.2464745555,2016,1.2360515021,-15296,9.3782955242,24,3.2926829268,-54,-1.4634146341,-17,1.0365853659,3,-0.0130434783,-56,-0.2434782609,133,-0.6487804878
3549305,15917.96875,-3728,2.2857142857,2000,1.2262415696,-15328,9.3979153893,57,2.8048780488,-46,-3.4756097561,-4,0.243902439,0,0,-56,-0.2434782609,132,-0.643902439
3549945,15937.5,-3792,2.3249540159,2112,1.2949110975,-15360,9.4175352544,30,2.3780487805,-39,-1.8292682927,-17,1.0365853659,5,-0.0217391304,-58,-0.252173913,132,-0.643902439
3550585,15957.03125,-3696,2.2660944206,2096,1.2851011649,-15504,9.5058246475,30,2.3780487805,-39,-1.8292682927,-17,1.0365853659,4,-0.0173913043,-56,-0.2434782609,133,-0.6487804878
3551225,15976.5625,-3712,2.2759043532,2048,1.2556713673,-15648,9.5941140405,27,2.256097561,-37,-1.6463414634,-22,1.3414634146,5,-0.0217391304,-58,-0.252173913,132,-0.643902439
3551865,15996.09375,-3792,2.3249540159,2032,1.2458614347,-15792,9.6824034335,7,2.6829268293,-44,-0.4268292683,-8,0.487804878,2,-0.0086956522,-55,-0.2391304348,131,-0.6390243902
3552505,16015.625,-3824,2.3445738811,2112,1.2949110975,-15920,9.7608828939,7,2.6829268293,-44,-0.4268292683,-8,0.487804878,4,-0.0173913043,-60,-0.2608695652,133,-0.6487804878
3553145,16035.15625,-3728,2.2857142857,2144,1.3145309626,-16000,9.8099325567,-6,3.9634146341,-65,0.3658536585,7,-0.4268292683,5,-0.0217391304,-59,-0.2565217391,133,-0.6487804878
3553785,16054.6875,-3728,2.2857142857,2112,1.2949110975,-15904,9.7510729614,-6,3.9634146341,-65,0.3658536585,7,-0.4268292683,5,-0.0217391304,-58,-0.252173913,132,-0.643902439
3554425,16074.21875,-3744,2.2955242183,2144,1.3145309626,-15744,9.6529736358,3,5.6097560976,-92,-0.1829268293,-12,0.7317073171,1,-0.0043478261,-57,-0.247826087,131,-0.6390243902
3555065,16093.75,-3776,2.3151440834,2128,1.30472103,-15392,9.4371551196,-24,7.1341463415,-117,1.4634146341,-45,2.743902439,3,-0.0130434783,-59,-0.2565217391,132,-0.643902439
3555705,16113.28125,-3680,2.256284488,2176,1.3341508277,-15104,9.2605763335,-24,7.1341463415,-117,1.4634146341,-45,2.743902439,3,-0.0130434783,-59,-0.2565217391,133,-0.6487804878
3556345,16132.8125,-3696,2.2660944206,2336,1.4322501533,-14560,8.9270386266,-45,6.4634146341,-106,2.743902439,-65,3.9634146341,4,-0.0173913043,-58,-0.252173913,132,-0.643902439
3556985,16152.34375,-3760,2.3053341508,2384,1.461679951,-14096,8.6425505825,-45,6.4634146341,-106,2.743902439,-65,3.9634146341,3,-0.0130434783,-54,-0.2347826087,131,-0.6390243902
3557625,16171.875,-3680,2.256284488,2512,1.5401594114,-13616,8.3482526058,-137,3.7195121951,-61,8.3536585366,-96,5.8536585366,3,-0.0130434783,-60,-0.2608695652,133,-0.6487804878
3558265,16191.40625,-3328,2.0404659718,2528,1.549969344,-13040,7.9950950337,-230,0.1829268293,-3,14.0243902439,-117,7.1341463415,3,-0.0130434783,-60,-0.2608695652,133,-0.6487804878
3558905,16210.9375,-3136,1.9227467811,2528,1.549969344,-12368,7.5830778663,-230,0.1829268293,-3,14.0243902439,-117,7.1341463415,2,-0.0086956522,-58,-0.252173913,133,-0.6487804878
3559545,16230.46875,-3216,1.9717964439,2672,1.638258737,-11584,7.1023911711,-308,-6.8292682927,112,18.7804878049,-133,8.1097560976,2,-0.0086956522,-57,-0.247826087,133,-0.6487804878
3560185,16250,-3120,1.9129368486,2896,1.7755977928,-11296,6.925812385,-443,-16.4634146341,270,27.012195122,-166,10.1219512195,2,-0.0086956522,-52,-0.2260869565,134,-0.6536585366
3560825,16269.53125,-2688,1.6480686695,2656,1.6284488044,-11120,6.8179031269,-443,-16.4634146341,270,27.012195122,-166,10.1219512195,1,-0.0043478261,-54,-0.2347826087,136,-0.6634146341
3561465,16289.0625,-2544,1.5597792765,2192,1.3439607603,-10896,6.6805640711,-364,-25.3658536585,416,22.1951219512,-178,10.8536585366,-1,0.0043478261,-48,-0.2086956522,134,-0.6536585366
3562105,16308.59375,-2928,1.7952176579,2112,1.2949110975,-10400,6.3764561619,-364,-25.3658536585,416,22.1951219512,-178,10.8536585366,-1,0.0043478261,-51,-0.2217391304,138,-0.6731707317
3562745,16328.125,-2784,1.7069282649,1712,1.0496627836,-10208,6.2587369712,-374,-37.3780487805,613,22.8048780488,-239,14.5731707317,-2,0.0086956522,-51,-0.2217391304,137,-0.6682926829
3563385,16347.65625,-2464,1.5107296137,1248,0.7651747394,-10480,6.4255058246,-280,-53.0487804878,870,17.0731707317,-188,11.4634146341,-2,0.0086956522,-50,-0.2173913043,138,-0.6731707317
3564025,16367.1875,-2256,1.3832004905,1008,0.6180257511,-10992,6.7394236665,-280,-53.0487804878,870,17.0731707317,-188,11.4634146341,-3,0.0130434783,-46,-0.2,139,-0.6780487805
3564665,16386.71875,-2288,1.4028203556,816,0.5003065604,-10784,6.6118945432,-117,-61.9512195122,1016,7.1341463415,-145,8.8414634146,-4,0.0173913043,-49,-0.2130434783,141,-0.687804878
3565305,16406.25,-2400,1.4714898835,208,0.1275291232,-10496,6.4353157572,-117,-61.9512195122,1016,7.1341463415,-145,8.8414634146,-5,0.0217391304,-41,-0.1782608696,139,-0.6780487805
3565945,16425.78125,-2240,1.3733905579,-736,-0.4512568976,-10576,6.48436542,-280,-70.7317073171,1160,17.0731707317,-280,17.0731707317,-2,0.0086956522,-40,-0.1739130435,140,-0.6829268293
3566585,16445.3125,-1552,0.951563458,-1984,-1.216431637,-10800,6.6217044758,-313,-82.5,1353,19.0853658537,-372,22.6829268293,-5,0.0217391304,-41,-0.1782608696,143,-0.6975609756
3567225,16464.84375,-1488,0.9123237278,-2832,-1.7363580625,-10672,6.5432250153,-313,-82.5,1353,19.0853658537,-372,22.6829268293,-5,0.0217391304,-36,-0.1565217391,142,-0.6926829268
3567865,16484.375,-1840,1.128142244,-3168,-1.9423666462,-10528,6.4549356223,-138,-92.6219512195,1519,8.4146341463,-437,26.6463414634,-5,0.0217391304,-32,-0.1391304348,141,-0.687804878
3568505,16503.90625,-1424,0.8730839975,-3856,-2.3641937462,-11504,7.0533415083,-138,-92.6219512195,1519,8.4146341463,-437,26.6463414634,-8,0.0347826087,-31,-0.1347826087,141,-0.687804878
3569145,16523.4375,-624,0.3825873697,-5072,-3.1097486205,-12192,7.4751686082,-137,-108.5365853659,1780,8.3536585366,-399,24.3292682927,-9,0.0391304348,-28,-0.1217391304,143,-0.6975609756
3569785,16542.96875,-1472,0.9025137952,-6048,-3.7081545064,-12000,7.3574494175,284,-117.1951219512,1922,-17.3170731707,-191,11.6463414634,-6,0.0260869565,-26,-0.1130434783,141,-0.687804878
3570425,16562.5,-2176,1.3341508277,-6544,-4.0122624157,-11760,7.2103004292,284,-117.1951219512,1922,-17.3170731707,-191,11.6463414634,-11,0.047826087,-15,-0.0652173913,139,-0.6780487805
3571065,16582.03125,-1664,1.0202329859,-7568,-4.6400980993,-12688,7.7792765175,100,-126.7073170732,2078,-6.0975609756,-233,14.2073170732,-9,0.0391304348,-14,-0.0608695652,138,-0.6731707317
3571705,16601.5625,-752,0.4610668302,-9648,-5.9153893317,-14624,8.9662783568,61,-135.1219512195,2216,-3.7195121951,156,-9.512195122,-11,0.047826087,-9,-0.0391304348,137,-0.6682926829
3572345,16621.09375,-928,0.5689760883,-11296,-6.925812385,-15744,9.6529736358,61,-135.1219512195,2216,-3.7195121951,156,-9.512195122,-10,0.0434782609,-10,-0.0434782609,136,-0.6634146341
3572985,16640.625,-1472,0.9025137952,-11680,-7.1612507664,-14992,9.1919068056,180,-130.0609756098,2133,-10.9756097561,225,-13.7195121951,-9,0.0391304348,-8,-0.0347826087,135,-0.6585365854
3573625,16660.15625,-1872,1.1477621091,-11936,-7.3182096873,-14560,8.9270386266,180,-130.0609756098,2133,-10.9756097561,225,-13.7195121951,-9,0.0391304348,-3,-0.0130434783,134,-0.6536585366
3574265,16679.6875,-1200,0.7357449418,-12720,-7.7988963826,-15456,9.4763948498,-426,-123.1097560976,2019,25.9756097561,34,-2.0731707317,-11,0.047826087,1,0.0043478261,131,-0.6390243902
3574905,16699.21875,544,-0.3335377069,-13824,-8.475781729,-15760,9.6627835684,-504,-114.0853658537,1871,30.7317073171,-73,4.4512195122,-12,0.052173913,7,0.0304347826,129,-0.6292682927
3575545,16718.75,1072,-0.6572654813,-14544,-8.9172286941,-15120,9.2703862661,-504,-114.0853658537,1871,30.7317073171,-73,4.4512195122,-13,0.0565217391,9,0.0391304348,129,-0.6292682927
3576185,16738.28125,208,-0.1275291232,-14320,-8.7798896383,-15456,9.4763948498,-19,-106.4634146341,1746,1.1585365854,-188,11.4634146341,-14,0.0608695652,11,0.047826087,127,-0.6195121951
3576825,16757.8125,-544,0.3335377069,-13488,-8.2697731453,-15792,9.6824034335,-19,-106.4634146341,1746,1.1585365854,-188,11.4634146341,-16,0.0695652174,12,0.052173913,124,-0.6048780488
3577465,16777.34375,-768,0.4708767627,-13712,-8.4071122011,-15600,9.5646842428,-142,-91.1585365854,1495,8.6585365854,-474,28.9024390244,-16,0.0695652174,12,0.052173913,125,-0.6097560976
3578105,16796.875,-1088,0.6670754139,-14800,-9.074187615,-15344,9.4077253219,-112,-81.2804878049,1333,6.8292682927,-440,26.8292682927,-17,0.0739130435,20,0.0869565217,122,-0.5951219512
3578745,16816.40625,-1552,0.951563458,-15440,-9.4665849172,-14864,9.1134273452,-112,-81.2804878049,1333,6.8292682927,-440,26.8292682927,-15,0.0652173913,18,0.0782608696,121,-0.5902439024
3579385,16835.9375,-2256,1.3832004905,-15248,-9.3488657265,-15424,9.4567749847,-208,-70.4268292683,1155,12.6829268293,-351,21.4024390244,-16,0.0695652174,21,0.0913043478,120,-0.5853658537
3580025,16855.46875,-2224,1.3635806254,-14208,-8.7112201104,-16336,10.0159411404,-492,-56.4634146341,926,30,-365,22.256097561,-22,0.0956521739,20,0.0869565217,121,-0.5902439024
3580665,16875,-1904,1.1673819742,-13856,-8.4954015941,-17888,10.9675045984,-492,-56.4634146341,926,30,-365,22.256097561,-21,0.0913043478,23,0.1,120,-0.5853658537
3581305,16894.53125,-1696,1.039852851,-14224,-8.7210300429,-18464,11.3206621704,-261,-37.8658536585,621,15.9146341463,-242,14.756097561,-20,0.0869565217,23,0.1,119,-0.5804878049
3581945,16914.0625,-2384,1.461679951,-14912,-9.1428571429,-18288,11.2127529123,-261,-37.8658536585,621,15.9146341463,-242,14.756097561,-21,0.0913043478,23,0.1,117,-0.5707317073
3582585,16933.59375,-3296,2.0208461067,-15264,-9.3586756591,-18928,11.6051502146,1,-17.0731707317,280,-0.0609756098,-45,2.743902439,-22,0.0956521739,22,0.0956521739,118,-0.5756097561
3583225,16953.125,-3200,1.9619865113,-14944,-9.162477008,-19840,12.1643163703,-174,12.3170731707,-202,10.6097560976,10,-0.6097560976,-21,0.0913043478,24,0.1043478261,120,-0.5853658537
3583865,16972.65625,-2432,1.4911097486,-15008,-9.2017167382,-20144,12.3507050889,-174,12.3170731707,-202,10.6097560976,10,-0.6097560976,-19,0.0826086957,22,0.0956521739,119,-0.5804878049
3584505,16992.1875,-1760,1.0790925812,-15248,-9.3488657265,-19888,12.193746168,-45,38.4146341463,-630,2.743902439,67,-4.0853658537,-21,0.0913043478,25,0.1086956522,120,-0.5853658537
3585145,17011.71875,-1632,1.0006131208,-15472,-9.4862047823,-19200,11.7719190681,-45,38.4146341463,-630,2.743902439,67,-4.0853658537,-22,0.0956521739,25,0.1086956522,120,-0.5853658537
3585785,17031.25,-1824,1.1183323115,-15648,-9.5941140405,-18880,11.5757204169,184,62.8048780488,-1030,-11.2195121951,99,-6.0365853659,-20,0.0869565217,22,0.0956521739,123,-0.6
3586425,17050.78125,-1856,1.1379521766,-15824,-9.7020232986,-19008,11.6541998774,49,86.5243902439,-1419,-2.987804878,90,-5.487804878,-18,0.0782608696,18,0.0782608696,124,-0.6048780488
3587065,17070.3125,-1616,0.9908031882,-15632,-9.5843041079,-18736,11.4874310239,49,86.5243902439,-1419,-2.987804878,90,-5.487804878,-18,0.0782608696,16,0.0695652174,125,-0.6097560976
3587705,17089.84375,-976,0.598405886,-15488,-9.4960147149,-18080,11.0852237891,-216,108.3536585366,-1777,13.1707317073,24,-1.4634146341,-20,0.0869565217,18,0.0782608696,127,-0.6195121951
3588345,17109.375,-304,0.1863887186,-15216,-9.3292458614,-17504,10.732066217,-238,124.512195122,-2042,14.512195122,-28,1.7073170732,-19,0.0826086957,13,0.0565217391,131,-0.6390243902
3588985,17128.90625,272,-0.1667688535,-14992,-9.1919068056,-16960,10.3985285101,-238,124.512195122,-2042,14.512195122,-28,1.7073170732,-21,0.0913043478,16,0.0695652174,130,-0.6341463415
3589625,17148.4375,432,-0.264868179,-14480,-8.8779889638,-16480,10.1042305334,-65,134.8780487805,-2212,3.9634146341,-6,0.3658536585,-18,0.0782608696,6,0.0260869565,136,-0.6634146341
3590265,17167.96875,320,-0.1961986511,-13824,-8.475781729,-16400,10.0551808706,-65,134.8780487805,-2212,3.9634146341,-6,0.3658536585,-19,0.0826086957,6,0.0260869565,136,-0.6634146341
3590905,17187.5,416,-0.2550582465,-13264,-8.1324340895,-16128,9.8884120172,60,142.3780487805,-2335,-3.6585365854,1,-0.0609756098,-19,0.0826086957,3,0.0130434783,138,-0.6731707317
3591545,17207.03125,240,-0.1471489884,-12704,-7.78908645,-15408,9.4469650521,190,146.4024390244,-2401,-11.5853658537,56,-3.4146341463,-18,0.0782608696,-3,-0.0130434783,140,-0.6829268293
3592185,17226.5625,-48,0.0294297977,-12256,-7.5144083384,-14832,9.0938074801,190,146.4024390244,-2401,-11.5853658537,56,-3.4146341463,-18,0.0782608696,-7,-0.0304347826,143,-0.6975609756
3592825,17246.09375,-576,0.353157572,-11504,-7.0533415083,-14832,9.0938074801,244,146.5853658537,-2404,-14.8780487805,86,-5.243902439,-14,0.0608695652,-8,-0.0347826087,142,-0.6926829268
3593465,17265.625,-592,0.3629675046,-10560,-6.4745554874,-14704,9.0153280196,244,146.5853658537,-2404,-14.8780487805,86,-5.243902439,-18,0.0782608696,-11,-0.047826087,143,-0.6975609756
3594105,17285.15625,-416,0.2550582465,-9712,-5.9546290619,-14192,8.7014101778,98,148.2317073171,-2431,-5.9756097561,72,-4.3902439024,-15,0.0652173913,-14,-0.0608695652,143,-0.6975609756
3594745,17304.6875,-304,0.1863887186,-8752,-5.3660331085,-13744,8.4267320662,101,146.2195121951,-2398,-6.1585365854,82,-5,-14,0.0608695652,-22,-0.0956521739,146,-0.712195122
3595385,17324.21875,-48,0.0294297977,-7712,-4.7283874923,-13344,8.1814837523,101,146.2195121951,-2398,-6.1585365854,82,-5,-14,0.0608695652,-27,-0.1173913043,146,-0.712195122
3596025,17343.75,-80,0.0490496628,-6720,-4.1201716738,-13376,8.2011036174,253,141.4634146341,-2320,-15.4268292683,65,-3.9634146341,-14,0.0608695652,-28,-0.1217391304,143,-0.6975609756
3596665,17363.28125,-336,0.2060085837,-5872,-3.6002452483,-13344,8.1814837523,253,141.4634146341,-2320,-15.4268292683,65,-3.9634146341,-10,0.0434782609,-34,-0.147826087,147,-0.7170731707
3597305,17382.8125,-720,0.4414469651,-4816,-2.9527896996,-13152,8.0637645616,349,136.9512195122,-2246,-21.2804878049,84,-5.1219512195,-10,0.0434782609,-37,-0.1608695652,146,-0.712195122
3597945,17402.34375,-912,0.5591661557,-3744,-2.2955242183,-12960,7.9460453709,316,131.7073170732,-2160,-19.2682926829,99,-6.0365853659,-7,0.0304347826,-43,-0.1869565217,146,-0.712195122
3598585,17421.875,-992,0.6082158185,-2720,-1.6676885346,-13232,8.1128142244,316,131.7073170732,-2160,-19.2682926829,99,-6.0365853659,-9,0.0391304348,-45,-0.1956521739,144,-0.7024390244
3599225,17441.40625,-944,0.5787860208,-1856,-1.1379521766,-13712,8.4071122011,346,125.3048780488,-2055,-21.0975609756,129,-7.8658536585,-6,0.0260869565,-48,-0.2086956522,145,-0.7073170732
3599865,17460.9375,-960,0.5885959534,-1136,-0.6965052115,-13568,8.3188228081,427,120.9146341463,-1983,-26.0365853659,223,-13.5975609756,-6,0.0260869565,-52,-0.2260869565,142,-0.6926829268
3600505,17480.46875,-1248,0.7651747394,-592,-0.3629675046,-13600,8.3384426732,427,120.9146341463,-1983,-26.0365853659,223,-13.5975609756,-5,0.0217391304,-52,-0.2260869565,139,-0.6780487805
3601145,17500,-1600,0.9809932557,112,0.0686695279,-13712,8.4071122011,491,116.1585365854,-1905,-29.9390243902,270,-16.4634146341,-6,0.0260869565,-58,-0.252173913,138,-0.6731707317
3601785,17519.53125,-1920,1.1771919068,752,0.4610668302,-13472,8.2599632128,491,116.1585365854,-1905,-29.9390243902,270,-16.4634146341,-1,0.0043478261,-62,-0.2695652174,136,-0.6634146341
3602425,17539.0625,-2224,1.3635806254,1376,0.8436541999,-12976,7.9558553035,428,115.6707317073,-1897,-26.0975609756,326,-19.8780487805,-2,0.0086956522,-64,-0.2782608696,136,-0.6634146341
3603065,17558.59375,-2432,1.4911097486,2160,1.3243408952,-12592,7.7204169221,251,111.8902439024,-1835,-15.3048780488,316,-19.2682926829,1,-0.0043478261,-72,-0.3130434783,135,-0.6585365854
3603705,17578.125,-2560,1.5695892091,2960,1.814837523,-12288,7.5340282036,251,111.8902439024,-1835,-15.3048780488,316,-19.2682926829,2,-0.0086956522,-71,-0.3086956522,131,-0.6390243902
3604345,17597.65625,-2464,1.5107296137,3680,2.256284488,-11872,7.2789699571,48,108.9024390244,-1786,-2.9268292683,267,-16.2804878049,2,-0.0086956522,-76,-0.3304347826,131,-0.6390243902
3604985,17617.1875,-2336,1.4322501533,4080,2.501532802,-10880,6.6707541386,48,108.9024390244,-1786,-2.9268292683,267,-16.2804878049,-1,0.0043478261,-79,-0.3434782609,131,-0.6390243902
3605625,17636.71875,-2368,1.4518700184,4944,3.03126916,-9600,5.885959534,-139,106.7682926829,-1751,8.4756097561,246,-15,0,0,-85,-0.3695652174,129,-0.6292682927
3606265,17656.25,-2144,1.3145309626,6080,3.7277743716,-8944,5.4837522992,-311,96.4024390244,-1581,18.9634146341,192,-11.7073170732,2,-0.0086956522,-84,-0.3652173913,125,-0.6097560976
3606905,17675.78125,-1536,0.9417535254,7040,4.316370325,-8384,5.1404046597,-311,96.4024390244,-1581,18.9634146341,192,-11.7073170732,-2,0.0086956522,-82,-0.3565217391,124,-0.6048780488
3607545,17695.3125,-1120,0.686695279,7888,4.8362967505,-7728,4.7381974249,-267,85.3048780488,-1399,16.2804878049,137,-8.3536585366,-1,0.0043478261,-89,-0.3869565217,123,-0.6
3608185,17714.84375,-976,0.598405886,8480,5.1992642551,-6928,4.2477007971,-43,69.3292682927,-1137,2.6219512195,119,-7.256097561,-1,0.0043478261,-90,-0.3913043478,122,-0.5951219512
3608825,17734.375,-1072,0.6572654813,8656,5.3071735132,-6496,3.982832618,-43,69.3292682927,-1137,2.6219512195,119,-7.256097561,-2,0.0086956522,-92,-0.4,123,-0.6
3609465,17753.90625,-1312,0.8044144697,9104,5.5818516248,-6080,3.7277743716,81,54.2073170732,-889,-4.9390243902,62,-3.7804878049,1,-0.0043478261,-95,-0.4130434783,121,-0.5902439024
3610105,17773.4375,-1728,1.0594727161,9568,5.8663396689,-5040,3.0901287554,81,54.2073170732,-889,-4.9390243902,62,-3.7804878049,1,-0.0043478261,-90,-0.3913043478,120,-0.5853658537
3610745,17792.96875,-2160,1.3243408952,10080,6.1802575107,-4336,2.6584917229,46,37.3170731707,-612,-2.8048780488,-23,1.4024390244,-2,0.0086956522,-92,-0.4,120,-0.5853658537
3611385,17812.5,-2160,1.3243408952,10480,6.4255058246,-3952,2.4230533415,-52,19.512195122,-320,3.1707317073,-62,3.7804878049,1,-0.0043478261,-93,-0.4043478261,118,-0.5756097561
3612025,17832.03125,-1856,1.1379521766,10640,6.5236051502,-3376,2.0698957695,-52,19.512195122,-320,3.1707317073,-62,3.7804878049,1,-0.0043478261,-98,-0.4260869565,119,-0.5804878049
3612665,17851.5625,-1760,1.0790925812,10576,6.48436542,-2368,1.4518700184,-70,-3.6585365854,60,4.2682926829,-59,3.5975609756,0,0,-93,-0.4043478261,119,-0.5804878049
3613305,17871.09375,-2096,1.2851011649,10736,6.5824647456,-1968,1.2066217045,-70,-3.6585365854,60,4.2682926829,-59,3.5975609756,0,0,-94,-0.4086956522,119,-0.5804878049
3613945,17890.625,-2192,1.3439607603,10688,6.5530349479,-2448,1.5009196812,-36,-31.8292682927,522,2.1951219512,-75,4.5731707317,-2,0.0086956522,-91,-0.3956521739,120,-0.5853658537
3614585,17910.15625,-1808,1.1085223789,10016,6.1410177805,-3184,1.9521765788,-51,-56.2195121951,922,3.1097560976,-13,0.7926829268,-1,0.0043478261,-94,-0.4086956522,121,-0.5902439024
3615225,17929.6875,-1600,0.9809932557,9232,5.6603310852,-3632,2.2268546904,-51,-56.2195121951,922,3.1097560976,-13,0.7926829268,0,0,-91,-0.3956521739,121,-0.5902439024
3615865,17949.21875,-1728,1.0594727161,8672,5.3169834457,-4336,2.6584917229,72,-80.4268292683,1319,-4.3902439024,56,-3.4146341463,0,0,-88,-0.3826086957,123,-0.6
3616505,17968.75,-1792,1.0987124464,8032,4.9245861435,-4784,2.9331698345,-4,-99.8170731707,1637,0.243902439,68,-4.1463414634,0,0,-89,-0.3869565217,126,-0.6146341463
3617145,17988.28125,-1632,1.0006131208,7312,4.4831391784,-5648,3.4629061925,-4,-99.8170731707,1637,0.243902439,68,-4.1463414634,-3,0.0130434783,-81,-0.352173913,126,-0.6146341463
3617785,18007.8125,-1216,0.7455548743,6512,3.9926425506,-6688,4.1005518087,-226,-115.7926829268,1899,13.7804878049,-10,0.6097560976,-5,0.0217391304,-81,-0.352173913,128,-0.6243902439
3618425,18027.34375,-960,0.5885959534,5456,3.3451870018,-7600,4.6597179644,-226,-115.7926829268,1899,13.7804878049,-10,0.6097560976,-2,0.0086956522,-78,-0.3391304348,134,-0.6536585366
3619065,18046.875,-608,0.3727774372,4064,2.4917228694,-8384,5.1404046597,-324,-127.6219512195,2093,19.756097561,-30,1.8292682927,-5,0.0217391304,-79,-0.3434782609,136,-0.6634146341
3619705,18066.40625,-128,0.0784794605,2336,1.4322501533,-8976,5.5033721643,-500,-140.1219512195,2298,30.487804878,-13,0.7926829268,-7,0.0304347826,-71,-0.3086956522,136,-0.6634146341
3620345,18085.9375,0,0,1088,0.6670754139,-10960,6.7198038013,-500,-140.1219512195,2298,30.487804878,-13,0.7926829268,-7,0.0304347826,-65,-0.2826086957,139,-0.6780487805
3620985,18105.46875,80,-0.0490496628,512,0.3139178418,-12912,7.9166155733,-281,-146.2804878049,2399,17.1341463415,15,-0.9146341463,-9,0.0391304348,-62,-0.2695652174,142,-0.6926829268
3621625,18125,224,-0.1373390558,-208,-0.1275291232,-13568,8.3188228081,-281,-146.2804878049,2399,17.1341463415,15,-0.9146341463,-11,0.047826087,-59,-0.2565217391,143,-0.6975609756
3622265,18144.53125,-144,0.088289393,-1248,-0.7651747394,-13088,8.0245248314,-180,-148.4756097561,2435,10.9756097561,57,-3.4756097561,-9,0.0391304348,-53,-0.2304347826,146,-0.712195122
3622905,18164.0625,-480,0.2942979767,-2320,-1.4224402207,-14704,9.0153280196,-127,-153.2317073171,2513,7.743902439,5,-0.3048780488,-12,0.052173913,-49,-0.2130434783,146,-0.712195122
3623545,18183.59375,-48,0.0294297977,-2832,-1.7363580625,-15904,9.7510729614,-127,-153.2317073171,2513,7.743902439,5,-0.3048780488,-11,0.047826087,-46,-0.2,147,-0.7170731707
3624185,18203.125,-128,0.0784794605,-4304,-2.6388718578,-15744,9.6529736358,102,-145.3658536585,2384,-6.2195121951,-40,2.4390243902,-12,0.052173913,-42,-0.1826086957,148,-0.7219512195
3624825,18222.65625,-208,0.1275291232,-5984,-3.6689147762,-14304,8.7700797057,102,-145.3658536585,2384,-6.2195121951,-40,2.4390243902,-12,0.052173913,-37,-0.1608695652,149,-0.7268292683
3625465,18242.1875,-48,0.0294297977,-8112,-4.9736358063,-15728,9.6431637032,-23,-151.5853658537,2486,1.4024390244,-57,3.4756097561,-13,0.0565217391,-32,-0.1391304348,148,-0.7219512195
3626105,18261.71875,-160,0.0980993256,-9440,-5.7878602085,-18272,11.2029429798,273,-145.6097560976,2388,-16.6463414634,24,-1.4634146341,-15,0.0652173913,-30,-0.1304347826,147,-0.7170731707
3626745,18281.25,-608,0.3727774372,-8816,-5.4052728387,-17664,10.8301655426,273,-145.6097560976,2388,-16.6463414634,24,-1.4634146341,-15,0.0652173913,-24,-0.1043478261,145,-0.7073170732
3627385,18300.78125,-1024,0.6278356836,-8256,-5.0619251993,-16016,9.8197424893,144,-137.012195122,2247,-8.7804878049,-92,5.6097560976,-13,0.0565217391,-20,-0.0869565217,144,-0.7024390244
3628025,18320.3125,-720,0.4414469651,-9056,-5.5524218271,-16352,10.025751073,-328,-136.7073170732,2242,20,-198,12.0731707317,-13,0.0565217391,-19,-0.0826086957,145,-0.7073170732
3628665,18339.84375,224,-0.1373390558,-10640,-6.5236051502,-17072,10.467198038,-328,-136.7073170732,2242,20,-198,12.0731707317,-15,0.0652173913,-8,-0.0347826087,144,-0.7024390244
3629305,18359.375,480,-0.2942979767,-11920,-7.3083997548,-17008,10.4279583078,-75,-127.8658536585,2097,4.5731707317,-193,11.7682926829,-15,0.0652173913,-8,-0.0347826087,141,-0.687804878
3629945,18378.90625,544,-0.3335377069,-12704,-7.78908645,-15904,9.7510729614,-75,-127.8658536585,2097,4.5731707317,-193,11.7682926829,-19,0.0826086957,-2,-0.0086956522,140,-0.6829268293
3630585,18398.4375,176,-0.1079092581,-13584,-8.3286327406,-15280,9.3684855917,19,-123.2926829268,2022,-1.1585365854,-201,12.256097561,-18,0.0782608696,-1,-0.0043478261,138,-0.6731707317
3631225,18417.96875,-624,0.3825873697,-14048,-8.6131207848,-16128,9.8884120172,-130,-113.9634146341,1869,7.9268292683,-318,19.3902439024,-19,0.0826086957,4,0.0173913043,137,-0.6682926829
3631865,18437.5,-512,0.3139178418,-13776,-8.4463519313,-16000,9.8099325567,-130,-113.9634146341,1869,7.9268292683,-318,19.3902439024,-17,0.0739130435,3,0.0130434783,137,-0.6682926829
3632505,18457.03125,-160,0.0980993256,-14016,-8.5935009197,-14320,8.7798896383,-265,-107.4390243902,1762,16.1585365854,-199,12.1341463415,-21,0.0913043478,8,0.0347826087,134,-0.6536585366
3633145,18476.5625,352,-0.2158185162,-14800,-9.074187615,-13104,8.0343347639,-265,-107.4390243902,1762,16.1585365854,-199,12.1341463415,-21,0.0913043478,13,0.0565217391,133,-0.6487804878
3633785,18496.09375,800,-0.4904966278,-14912,-9.1428571429,-13104,8.0343347639,-276,-107.0731707317,1756,16.8292682927,-127,7.743902439,-22,0.0956521739,17,0.0739130435,131,-0.6390243902
3634425,18515.625,640,-0.3923973023,-14064,-8.6229307174,-12896,7.9068056407,-193,-99.2682926829,1628,11.7682926829,-211,12.8658536585,-21,0.0913043478,18,0.0782608696,129,-0.6292682927
3635065,18535.15625,736,-0.4512568976,-13184,-8.0833844267,-12736,7.8087063151,-193,-99.2682926829,1628,11.7682926829,-211,12.8658536585,-22,0.0956521739,20,0.0869565217,130,-0.6341463415
3635705,18554.6875,768,-0.4708767627,-13696,-8.3973022685,-14048,8.6131207848,-85,-98.9634146341,1623,5.1829268293,-199,12.1341463415,-24,0.1043478261,21,0.0913043478,128,-0.6243902439
3636345,18574.21875,592,-0.3629675046,-15120,-9.2703862661,-15024,9.2115266708,-18,-88.9024390244,1458,1.0975609756,-87,5.3048780488,-23,0.1,19,0.0826086957,125,-0.6097560976
3636985,18593.75,-144,0.088289393,-16016,-9.8197424893,-15760,9.6627835684,-18,-88.9024390244,1458,1.0975609756,-87,5.3048780488,-24,0.1043478261,23,0.1,124,-0.6048780488
3637625,18613.28125,-752,0.4610668302,-16128,-9.8884120172,-16288,9.9865113427,-445,-68.7195121951,1127,27.1341463415,-146,8.9024390244,-25,0.1086956522,26,0.1130434783,122,-0.5951219512
3638265,18632.8125,-304,0.1863887186,-15712,-9.6333537707,-16896,10.3592887799,-445,-68.7195121951,1127,27.1341463415,-146,8.9024390244,-27,0.1173913043,26,0.1130434783,120,-0.5853658537
3638905,18652.34375,512,-0.3139178418,-15552,-9.5352544451,-16784,10.290619252,-773,-46.3414634146,760,47.1341463415,-183,11.1585365854,-26,0.1130434783,24,0.1043478261,122,-0.5951219512
3639545,18671.875,784,-0.4806866953,-15888,-9.7412630288,-15840,9.7118332311,-656,-29.512195122,484,40,-190,11.5853658537,-27,0.1173913043,26,0.1130434783,122,-0.5951219512
3640185,18691.40625,832,-0.5101164929,-15616,-9.5744941754,-16976,10.4083384427,-656,-29.512195122,484,40,-190,11.5853658537,-28,0.1217391304,30,0.1304347826,121,-0.5902439024
3640825,18710.9375,1232,-0.7553648069,-14800,-9.074187615,-18688,11.4580012262,-281,-7.1951219512,118,17.1341463415,-223,13.5975609756,-29,0.1260869565,31,0.1347826087,120,-0.5853658537
3641465,18730.46875,1136,-0.6965052115,-14848,-9.1036174126,-19760,12.1152667075,-281,-7.1951219512,118,17.1341463415,-223,13.5975609756,-32,0.1391304348,29,0.1260869565,123,-0.6
3642105,18750,464,-0.2844880441,-15968,-9.7903126916,-21488,13.1747394237,339,14.5731707317,-239,-20.6707317073,-54,3.2926829268,-31,0.1347826087,28,0.1217391304,122,-0.5951219512
3642745,18769.53125,-336,0.2060085837,-17200,-10.5456774985,-23392,14.3421213979,548,50.1829268293,-823,-33.4146341463,20,-1.2195121951,-28,0.1217391304,30,0.1304347826,121,-0.5902439024
3643385,18789.0625,-1104,0.6768853464,-17792,-10.9086450031,-24720,15.1563458001,548,50.1829268293,-823,-33.4146341463,20,-1.2195121951,-30,0.1304347826,26,0.1130434783,123,-0.6
3644025,18808.59375,-1184,0.7259350092,-18064,-11.0754138565,-24864,15.2446351931,189,94.512195122,-1550,-11.5243902439,75,-4.5731707317,-29,0.1260869565,28,0.1217391304,123,-0.6
3644665,18828.125,-432,0.264868179,-18848,-11.5561005518,-24368,14.9405272839,-269,134.9390243902,-2213,16.4024390244,17,-1.0365853659,-28,0.1217391304,25,0.1086956522,126,-0.6146341463
3645305,18847.65625,928,-0.5689760883,-19584,-12.0073574494,-23344,14.3126916002,-269,134.9390243902,-2213,16.4024390244,17,-1.0365853659,-26,0.1130434783,20,0.0869565217,129,-0.6292682927
3645945,18867.1875,2208,-1.3537706928,-19856,-12.1741263029,-21824,13.3807480074,-298,168.0487804878,-2756,18.1707317073,-157,9.5731707317,-27,0.1173913043,15,0.0652173913,133,-0.6487804878
3646585,18886.71875,3200,-1.9619865113,-19840,-12.1643163703,-20144,12.3507050889,-298,168.0487804878,-2756,18.1707317073,-157,9.5731707317,-30,0.1304347826,17,0.0739130435,136,-0.6634146341
3647225,18906.25,3424,-2.0993255671,-19376,-11.8798283262,-18496,11.3402820356,-62,188.4146341463,-3090,3.7804878049,-226,13.7804878049,-28,0.1217391304,11,0.047826087,141,-0.687804878
3647865,18925.78125,3152,-1.9325567137,-18592,-11.3991416309,-16896,10.3592887799,43,199.756097561,-3276,-2.6219512195,-275,16.7682926829,-27,0.1173913043,3,0.0130434783,144,-0.7024390244
3648505,18945.3125,2992,-1.8344573881,-17840,-10.9380748007,-15616,9.5744941754,43,199.756097561,-3276,-2.6219512195,-275,16.7682926829,-26,0.1130434783,0,0,146,-0.712195122
3649145,18964.84375,3120,-1.9129368486,-16864,-10.3396689148,-14400,8.828939301,-32,205.9146341463,-3377,1.9512195122,-378,23.0487804878,-27,0.1173913043,-3,-0.0130434783,150,-0.7317073171
3649785,18984.375,3440,-2.1091354997,-15712,-9.6333537707,-13472,8.2599632128,-32,205.9146341463,-3377,1.9512195122,-378,23.0487804878,-26,0.1130434783,-13,-0.0565217391,151,-0.7365853659
3650425,19003.90625,3184,-1.9521765788,-14240,-8.7308399755,-12912,7.9166155733,207,203.3536585366,-3335,-12.6219512195,-387,23.5975609756,-26,0.1130434783,-13,-0.0565217391,153,-0.7463414634
3651065,19023.4375,2432,-1.4911097486,-12768,-7.8283261803,-12272,7.524218271,485,198.0487804878,-3248,-29.5731707317,-302,18.4146341463,-24,0.1043478261,-20,-0.0869565217,152,-0.7414634146
3651705,19042.96875,1520,-0.9319435929,-11376,-6.9748620478,-11680,7.1612507664,485,198.0487804878,-3248,-29.5731707317,-302,18.4146341463,-22,0.0956521739,-26,-0.1130434783,153,-0.7463414634
3652345,19062.5,960,-0.5885959534,-9872,-6.0527283875,-11232,6.8865726548,349,192.1951219512,-3152,-21.2804878049,-261,15.9146341463,-20,0.0869565217,-33,-0.1434782609,153,-0.7463414634
3652985,19082.03125,656,-0.4022072348,-8352,-5.1207847946,-10704,6.5628448804,197,185.487804878,-3042,-12.012195122,-318,19.3902439024,-20,0.0869565217,-37,-0.1608695652,154,-0.7512195122
3653625,19101.5625,640,-0.3923973023,-6768,-4.1496014715,-10144,6.219497241,197,185.487804878,-3042,-12.012195122,-318,19.3902439024,-19,0.0826086957,-45,-0.1956521739,153,-0.7463414634
3654265,19121.09375,768,-0.4708767627,-5104,-3.1293684856,-9856,6.0429184549,212,173.7804878049,-2850,-12.9268292683,-298,18.1707317073,-16,0.0695652174,-48,-0.2086956522,152,-0.7414634146
3654905,19140.625,704,-0.4316370325,-3520,-2.1581851625,-9680,5.9350091968,212,173.7804878049,-2850,-12.9268292683,-298,18.1707317073,-15,0.0652173913,-56,-0.2434782609,151,-0.7365853659
3655545,19160.15625,400,-0.2452483139,-2032,-1.2458614347,-9552,5.8565297364,413,160.1829268293,-2627,-25.1829268293,-240,14.6341463415,-16,0.0695652174,-58,-0.252173913,148,-0.7219512195
3656185,19179.6875,-160,0.0980993256,-640,-0.3923973023,-9376,5.7486204782,568,146.7682926829,-2407,-34.6341463415,-138,8.4146341463,-13,0.0565217391,-65,-0.2826086957,146,-0.712195122
3656825,19199.21875,-400,0.2452483139,720,0.4414469651,-9616,5.8957694666,568,146.7682926829,-2407,-34.6341463415,-138,8.4146341463,-12,0.052173913,-68,-0.2956521739,145,-0.7073170732
3657465,19218.75,-416,0.2550582465,2112,1.2949110975,-9776,5.9938687922,635,134.6951219512,-2209,-38.7195121951,-63,3.8414634146,-9,0.0391304348,-69,-0.3,142,-0.6926829268
3658105,19238.28125,-496,0.3041079093,3088,1.8933169834,-9936,6.0919681177,635,134.6951219512,-2209,-38.7195121951,-63,3.8414634146,-8,0.0347826087,-73,-0.3173913043,141,-0.687804878
3658745,19257.8125,-816,0.5003065604,3824,2.3445738811,-10096,6.1900674433,768,124.512195122,-2042,-46.8292682927,80,-4.8780487805,-7,0.0304347826,-75,-0.3260869565,138,-0.6731707317
3659385,19277.34375,-1232,0.7553648069,4288,2.6290619252,-10416,6.3862660944,742,115.7926829268,-1899,-45.243902439,213,-12.987804878,-5,0.0217391304,-77,-0.3347826087,134,-0.6536585366
3660025,19296.875,-1744,1.0692826487,5056,3.0999386879,-10192,6.2489270386,742,115.7926829268,-1899,-45.243902439,213,-12.987804878,-6,0.0260869565,-81,-0.352173913,133,-0.6487804878
3660665,19316.40625,-2144,1.3145309626,5840,3.5806253832,-9664,5.9251992643,377,111.6463414634,-1831,-22.987804878,235,-14.3292682927,-3,0.0130434783,-83,-0.3608695652,130,-0.6341463415
3661305,19335.9375,-1680,1.0300429185,6496,3.982832618,-8656,5.3071735132,377,111.6463414634,-1831,-22.987804878,235,-14.3292682927,-3,0.0130434783,-87,-0.3782608696,127,-0.6195121951
3661945,19355.46875,-928,0.5689760883,7376,4.5223789086,-7984,4.8951563458,-119,105,-1722,7.256097561,167,-10.1829268293,-4,0.0173913043,-85,-0.3695652174,124,-0.6048780488
3662585,19375,-464,0.2844880441,8464,5.1894543225,-7232,4.4340895156,-62,95,-1558,3.7804878049,78,-4.756097561,-2,0.0086956522,-94,-0.4086956522,124,-0.6048780488
3663225,19394.53125,-320,0.1961986511,9328,5.7191906806,-6400,3.9239730227,-62,95,-1558,3.7804878049,78,-4.756097561,-2,0.0086956522,-94,-0.4086956522,121,-0.5902439024
3663865,19414.0625,-352,0.2158185162,9872,6.0527283875,-6144,3.7670141018,123,80.1219512195,-1314,-7.5,-10,0.6097560976,-1,0.0043478261,-96,-0.4173913043,120,-0.5853658537
3664505,19433.59375,-656,0.4022072348,10384,6.3666462293,-5264,3.2274678112,247,65.8536585366,-1080,-15.0609756098,-37,2.256097561,0,0,-100,-0.4347826087,121,-0.5902439024
3665145,19453.125,-1440,0.8828939301,11024,6.7590435316,-3776,2.3151440834,247,65.8536585366,-1080,-15.0609756098,-37,2.256097561,-1,0.0043478261,-99,-0.4304347826,116,-0.5658536585
3665785,19472.65625,-2208,1.3537706928,11792,7.2299202943,-2944,1.8050275904,72,46.5853658537,-764,-4.3902439024,-101,6.1585365854,0,0,-98,-0.4260869565,115,-0.5609756098
3666425,19492.1875,-2064,1.2654812998,12128,7.435928878,-3248,1.991416309,72,46.5853658537,-764,-4.3902439024,-101,6.1585365854,1,-0.0043478261,-99,-0.4304347826,115,-0.5609756098
3667065,19511.71875,-1296,0.7946045371,12160,7.4555487431,-3088,1.8933169834,-40,29.0853658537,-477,2.4390243902,-103,6.2804878049,-1,0.0043478261,-101,-0.4391304348,115,-0.5609756098
3667705,19531.25,-1424,0.8730839975,12240,7.5045984059,-2608,1.5990190067,147,7.012195122,-115,-8.9634146341,-10,0.6097560976,-1,0.0043478261,-99,-0.4304347826,112,-0.5463414634
3668345,19550.78125,-1904,1.1673819742,12416,7.612507664,-2496,1.5303494788,147,7.012195122,-115,-8.9634146341,-10,0.6097560976,-3,0.0130434783,-96,-0.4173913043,113,-0.5512195122
3668985,19570.3125,-2112,1.2949110975,12464,7.6419374617,-2864,1.7559779277,162,-14.8170731707,243,-9.8780487805,46,-2.8048780488,-1,0.0043478261,-99,-0.4304347826,113,-0.5512195122
3669625,19589.84375,-2192,1.3439607603,12368,7.5830778663,-2640,1.6186388719,162,-14.8170731707,243,-9.8780487805,46,-2.8048780488,0,0,-98,-0.4260869565,112,-0.5463414634
3670265,19609.375,-2048,1.2556713673,11824,7.2495401594,-2480,1.5205395463,19,-34.3292682927,563,-1.1585365854,38,-2.3170731707,0,0,-97,-0.4217391304,114,-0.556097561
3670905,19628.90625,-1568,0.9613733906,10720,6.572654813,-2432,1.4911097486,-74,-56.2804878049,923,4.512195122,87,-5.3048780488,0,0,-100,-0.4347826087,116,-0.5658536585
3671545,19648.4375,-1760,1.0790925812,9728,5.9644389945,-2816,1.72654813,-74,-56.2804878049,923,4.512195122,87,-5.3048780488,0,0,-95,-0.4130434783,119,-0.5804878049
3672185,19667.96875,-1952,1.1968117719,9456,5.797670141,-3248,1.991416309,2,-76.3414634146,1252,-0.1219512195,100,-6.0975609756,-5,0.0217391304,-93,-0.4043478261,120,-0.5853658537
3672825,19687.5,-1552,0.951563458,9424,5.7780502759,-3488,2.1385652974,-146,-96.0975609756,1576,8.9024390244,-7,0.4268292683,-1,0.0043478261,-97,-0.4217391304,122,-0.5951219512
3673465,19707.03125,-1024,0.6278356836,8464,5.1894543225,-3856,2.3641937462,-146,-96.0975609756,1576,8.9024390244,-7,0.4268292683,-4,0.0173913043,-90,-0.3913043478,125,-0.6097560976
3674105,19726.5625,-848,0.5199264255,6608,4.0515021459,-4640,2.8448804414,-42,-117.5609756098,1928,2.5609756098,-13,0.7926829268,-4,0.0173913043,-89,-0.3869565217,127,-0.6195121951
3674745,19746.09375,-656,0.4022072348,5328,3.2667075414,-5552,3.4040465972,-42,-117.5609756098,1928,2.5609756098,-13,0.7926829268,-3,0.0130434783,-86,-0.3739130435,129,-0.6292682927
3675385,19765.625,-672,0.4120171674,4576,2.8056407112,-5936,3.6394849785,70,-132.1341463415,2167,-4.2682926829,-90,5.487804878,-4,0.0173913043,-81,-0.352173913,132,-0.643902439
3676025,19785.15625,-1248,0.7651747394,3040,1.8638871858,-6672,4.0907418761,-198,-147.8658536585,2425,12.0731707317,-119,7.256097561,-4,0.0173913043,-76,-0.3304347826,132,-0.643902439
3676665,19804.6875,-1408,0.863274065,1056,0.6474555487,-8384,5.1404046597,-198,-147.8658536585,2425,12.0731707317,-119,7.256097561,-7,0.0304347826,-73,-0.3173913043,135,-0.6585365854
3677305,19824.21875,-768,0.4708767627,-272,-0.1667688535,-9856,6.0429184549,-674,-157.1951219512,2578,41.0975609756,-122,7.4390243902,-6,0.0260869565,-70,-0.3043478261,140,-0.6829268293
3677945,19843.75,464,-0.2844880441,-720,-0.4414469651,-10928,6.7001839362,-674,-157.1951219512,2578,41.0975609756,-122,7.4390243902,-10,0.0434782609,-66,-0.2869565217,143,-0.6975609756
3678585,19863.28125,1328,-0.8142244022,-1712,-1.0496627836,-12704,7.78908645,-954,-168.7195121951,2767,58.1707317073,-24,1.4634146341,-13,0.0565217391,-63,-0.2739130435,147,-0.7170731707
3679225,19882.8125,1728,-1.0594727161,-2448,-1.5009196812,-13648,8.3678724709,-713,-175.0609756098,2871,43.4756097561,249,-15.1829268293,-14,0.0608695652,-57,-0.247826087,148,-0.7219512195
3679865,19902.34375,2480,-1.5205395463,-3776,-2.3151440834,-15136,9.2801961987,-713,-175.0609756098,2871,43.4756097561,249,-15.1829268293,-14,0.0608695652,-50,-0.2173913043,150,-0.7317073171
3680505,19921.875,2432,-1.4911097486,-4736,-2.9037400368,-15376,9.427345187,-380,-172.5609756098,2830,23.1707317073,266,-16.2195121951,-17,0.0739130435,-47,-0.2043478261,150,-0.7317073171
3681145,19941.40625,2032,-1.2458614347,-5536,-3.3942366646,-16448,10.0846106683,-207,-173.2926829268,2842,12.6219512195,180,-10.9756097561,-19,0.0826086957,-41,-0.1782608696,153,-0.7463414634
3681785,19960.9375,2592,-1.5892090742,-6416,-3.9337829552,-16928,10.378908645,-207,-173.2926829268,2842,12.6219512195,180,-10.9756097561,-18,0.0782608696,-39,-0.1695652174,153,-0.7463414634
3682425,19980.46875,2720,-1.6676885346,-7520,-4.6106683017,-15776,9.6725935009,245,-170.3048780488,2793,-14.9390243902,201,-12.256097561,-18,0.0782608696,-33,-0.1434782609,153,-0.7463414634
3683065,20000,1808,-1.1085223789,-8960,-5.4935622318,-15120,9.2703862661,245,-170.3048780488,2793,-14.9390243902,201,-12.256097561,-19,0.0826086957,-29,-0.1260869565,151,-0.7365853659
3683705,20019.53125,1120,-0.686695279,-10576,-6.48436542,-16800,10.3004291845,419,-172.743902439,2833,-25.5487804878,-4,0.243902439,-18,0.0782608696,-22,-0.0956521739,149,-0.7268292683
3684345,20039.0625,1456,-0.8927038627,-11312,-6.9356223176,-17216,10.555487431,150,-164.0243902439,2690,-9.1463414634,-224,13.6585365854,-18,0.0782608696,-20,-0.0869565217,149,-0.7268292683
3684985,20058.59375,1552,-0.951563458,-12112,-7.4261189454,-16096,9.8687921521,150,-164.0243902439,2690,-9.1463414634,-224,13.6585365854,-20,0.0869565217,-9,-0.0391304348,145,-0.7073170732
3685625,20078.125,1040,-0.6376456162,-13360,-8.1912936849,-14864,9.1134273452,212,-162.6829268293,2668,-12.9268292683,-252,15.3658536585,-23,0.1,-10,-0.0434782609,146,-0.712195122
3686265,20097.65625,672,-0.4120171674,-14688,-9.0055180871,-15376,9.427345187,212,-162.6829268293,2668,-12.9268292683,-252,15.3658536585,-21,0.0913043478,1,0.0043478261,143,-0.6975609756
3686905,20117.1875,1408,-0.863274065,-15264,-9.3586756591,-16288,9.9865113427,89,-154.0853658537,2527,-5.4268292683,-440,26.8292682927,-24,0.1043478261,7,0.0304347826,139,-0.6780487805
3687545,20136.71875,1552,-0.951563458,-15888,-9.7412630288,-16688,10.2317596567,354,-147.1341463415,2413,-21.5853658537,-269,16.4024390244,-23,0.1,8,0.0347826087,136,-0.6634146341
3688185,20156.25,624,-0.3825873697,-16336,-10.0159411404,-16432,10.0748007357,354,-147.1341463415,2413,-21.5853658537,-269,16.4024390244,-25,0.1086956522,11,0.047826087,135,-0.6585365854
3688825,20175.78125,-176,0.1079092581,-16352,-10.025751073,-14816,9.0839975475,141,-135.4268292683,2221,-8.5975609756,-288,17.5609756098,-22,0.0956521739,16,0.0695652174,132,-0.643902439
3689465,20195.3125,144,-0.088289393,-16608,-10.1827099939,-13904,8.5248313918,141,-135.4268292683,2221,-8.5975609756,-288,17.5609756098,-23,0.1,20,0.0869565217,128,-0.6243902439
3690105,20214.84375,1008,-0.6180257511,-16480,-10.1042305334,-14896,9.1330472103,-326,-125.8536585366,2064,19.8780487805,-299,18.2317073171,-24,0.1043478261,24,0.1043478261,126,-0.6146341463
3690745,20234.375,1824,-1.1183323115,-15856,-9.7216431637,-14704,9.0153280196,-55,-114.5731707317,1879,3.3536585366,-263,16.0365853659,-24,0.1043478261,25,0.1086956522,124,-0.6048780488
3691385,20253.90625,1664,-1.0202329859,-16224,-9.9472716125,-12848,7.877375843,-55,-114.5731707317,1879,3.3536585366,-263,16.0365853659,-27,0.1173913043,28,0.1217391304,120,-0.5853658537
3692025,20273.4375,944,-0.5787860208,-16976,-10.4083384427,-13072,8.0147148988,31,-111.9512195122,1836,-1.8902439024,-242,14.756097561,-27,0.1173913043,29,0.1260869565,121,-0.5902439024
3692665,20292.96875,192,-0.1177191907,-16544,-10.1434702636,-15056,9.2311465359,-181,-89.6951219512,1471,11.0365853659,-351,21.4024390244,-29,0.1260869565,33,0.1434782609,117,-0.5707317073
3693305,20312.5,-224,0.1373390558,-15888,-9.7412630288,-16224,9.9472716125,-181,-89.6951219512,1471,11.0365853659,-351,21.4024390244,-27,0.1173913043,31,0.1347826087,116,-0.5658536585
3693945,20332.03125,-288,0.176578786,-15968,-9.7903126916,-16832,10.3200490497,-217,-70.7926829268,1161,13.2317073171,-211,12.8658536585,-28,0.1217391304,32,0.1391304348,113,-0.5512195122
3694585,20351.5625,-288,0.176578786,-16528,-10.1336603311,-17728,10.8694052728,-217,-70.7926829268,1161,13.2317073171,-211,12.8658536585,-30,0.1304347826,32,0.1391304348,114,-0.556097561
3695225,20371.09375,-1040,0.6376456162,-16992,-10.4181483752,-18640,11.4285714286,-154,-47.256097561,775,9.3902439024,-78,4.756097561,-29,0.1260869565,33,0.1434782609,113,-0.5512195122
3695865,20390.625,-1728,1.0594727161,-16752,-10.2709993869,-19328,11.8503985285,-231,-16.9512195122,278,14.0853658537,40,-2.4390243902,-29,0.1260869565,33,0.1434782609,111,-0.5414634146
3696505,20410.15625,-1968,1.2066217045,-16272,-9.9767014102,-19920,12.2133660331,-231,-16.9512195122,278,14.0853658537,40,-2.4390243902,-29,0.1260869565,33,0.1434782609,111,-0.5414634146
3697145,20429.6875,-1408,0.863274065,-16256,-9.9668914776,-20496,12.5665236052,-246,14.6341463415,-240,15,134,-8.1707317073,-30,0.1304347826,38,0.1652173913,114,-0.556097561
3697785,20449.21875,-800,0.4904966278,-16608,-10.1827099939,-20176,12.370324954,-246,14.6341463415,-240,15,134,-8.1707317073,-31,0.1347826087,38,0.1652173913,113,-0.5512195122
3698425,20468.75,-720,0.4414469651,-17216,-10.555487431,-19552,11.9877375843,103,43.6585365854,-716,-6.2804878049,215,-13.1097560976,-29,0.1260869565,35,0.152173913,112,-0.5463414634
3699065,20488.28125,-784,0.4806866953,-17776,-10.8988350705,-19680,12.0662170448,330,72.012195122,-1181,-20.1219512195,266,-16.2195121951,-28,0.1217391304,30,0.1304347826,115,-0.5609756098
3699705,20507.8125,-752,0.4610668302,-18112,-11.1048436542,-20320,12.458614347,330,72.012195122,-1181,-20.1219512195,266,-16.2195121951,-28,0.1217391304,33,0.1434782609,116,-0.5658536585
3700345,20527.34375,-928,0.5689760883,-18176,-11.1440833844,-20912,12.8215818516,223,101.5853658537,-1666,-13.5975609756,420,-25.6097560976,-27,0.1173913043,28,0.1217391304,119,-0.5804878049
3700985,20546.875,-752,0.4610668302,-18304,-11.2225628449,-20192,12.3801348866,-305,134.0853658537,-2199,18.5975609756,341,-20.7926829268,-26,0.1130434783,26,0.1130434783,122,-0.5951219512
3701625,20566.40625,80,-0.0490496628,-18640,-11.4285714286,-18400,11.2814224402,-305,134.0853658537,-2199,18.5975609756,341,-20.7926829268,-25,0.1086956522,21,0.0913043478,127,-0.6195121951
3702265,20585.9375,1136,-0.6965052115,-18512,-11.3500919681,-17072,10.467198038,-733,158.1707317073,-2594,44.6951219512,50,-3.0487804878,-24,0.1043478261,23,0.1,127,-0.6195121951
3702905,20605.46875,2656,-1.6284488044,-18368,-11.2618025751,-16688,10.2317596567,-733,158.1707317073,-2594,44.6951219512,50,-3.0487804878,-27,0.1173913043,16,0.0695652174,132,-0.643902439
3703545,20625,3744,-2.2955242183,-18176,-11.1440833844,-16816,10.3102391171,-454,169.9390243902,-2787,27.6829268293,-52,3.1707317073,-26,0.1130434783,12,0.052173913,138,-0.6731707317
3704185,20644.53125,3952,-2.4230533415,-17872,-10.9576946658,-17072,10.467198038,85,177.1341463415,-2905,-5.1829268293,76,-4.6341463415,-25,0.1086956522,11,0.047826087,137,-0.6682926829
3704825,20664.0625,3312,-2.0306560392,-17760,-10.889025138,-17536,10.7516860822,85,177.1341463415,-2905,-5.1829268293,76,-4.6341463415,-24,0.1043478261,6,0.0260869565,141,-0.687804878
3705465,20683.59375,3136,-1.9227467811,-17168,-10.5260576334,-17184,10.5358675659,126,190.3658536585,-3122,-7.6829268293,88,-5.3658536585,-25,0.1086956522,0,0,144,-0.7024390244
3706105,20703.125,3168,-1.9423666462,-16608,-10.1827099939,-16160,9.9080318823,126,190.3658536585,-3122,-7.6829268293,88,-5.3658536585,-25,0.1086956522,-8,-0.0347826087,149,-0.7268292683
3706745,20722.65625,2928,-1.7952176579,-15600,-9.5646842428,-15088,9.250766401,28,200.3658536585,-3286,-1.7073170732,-74,4.512195122,-23,0.1,-9,-0.0391304348,149,-0.7268292683
3707385,20742.1875,2656,-1.6284488044,-14640,-8.9760882894,-14336,8.7896995708,-125,204.3292682927,-3351,7.6219512195,-296,18.0487804878,-26,0.1130434783,-13,-0.0565217391,150,-0.7317073171
3708025,20761.71875,2544,-1.5597792765,-13424,-8.2305334151,-13520,8.2893930104,-125,204.3292682927,-3351,7.6219512195,-296,18.0487804878,-23,0.1,-21,-0.0913043478,151,-0.7365853659
3708665,20781.25,2704,-1.6578786021,-11824,-7.2495401594,-12544,7.6909871245,-133,202.987804878,-3329,8.1097560976,-496,30.243902439,-23,0.1,-27,-0.1173913043,151,-0.7365853659
3709305,20800.78125,2816,-1.72654813,-10048,-6.1606376456,-11952,7.3280196199,170,194.1463414634,-3184,-10.3658536585,-570,34.756097561,-22,0.0956521739,-29,-0.1260869565,153,-0.7463414634
3709945,20820.3125,2576,-1.5793991416,-8544,-5.2385039853,-11680,7.1612507664,170,194.1463414634,-3184,-10.3658536585,-570,34.756097561,-21,0.0913043478,-40,-0.1739130435,155,-0.756097561
3710585,20839.84375,1856,-1.1379521766,-7072,-4.3359901901,-11120,6.8179031269,590,184.3292682927,-3023,-35.9756097561,-441,26.8902439024,-19,0.0826086957,-39,-0.1695652174,154,-0.7512195122
3711225,20859.375,976,-0.598405886,-5632,-3.45309626,-10528,6.4549356223,590,184.3292682927,-3023,-35.9756097561,-441,26.8902439024,-17,0.0739130435,-46,-0.2,153,-0.7463414634
3711865,20878.90625,752,-0.4610668302,-4160,-2.5505824647,-10464,6.4156958921,700,172.1341463415,-2823,-42.6829268293,-339,20.6707317073,-14,0.0608695652,-54,-0.2347826087,151,-0.7365853659
3712505,20898.4375,960,-0.5885959534,-2800,-1.7167381974,-10416,6.3862660944,869,161.9512195122,-2656,-52.987804878,-256,15.6097560976,-13,0.0565217391,-52,-0.2260869565,147,-0.7170731707
3713145,20917.96875,672,-0.4120171674,-1280,-0.7847946045,-9744,5.974248927,869,161.9512195122,-2656,-52.987804878,-256,15.6097560976,-11,0.047826087,-58,-0.252173913,146,-0.712195122
3713785,20937.5,64,-0.0392397302,192,0.1177191907,-8848,5.4248927039,1261,148.1097560976,-2429,-76.8902439024,-181,11.0365853659,-7,0.0304347826,-65,-0.2826086957,140,-0.6829268293
3714425,20957.03125,-960,0.5885959534,1552,0.951563458,-8160,5.0030656039,1261,148.1097560976,-2429,-76.8902439024,-181,11.0365853659,-5,0.0217391304,-65,-0.2826086957,139,-0.6780487805
3715065,20976.5625,-2288,1.4028203556,2704,1.6578786021,-7600,4.6597179644,1304,134.5731707317,-2207,-79.512195122,-76,4.6341463415,-2,0.0086956522,-68,-0.2956521739,132,-0.643902439
3715705,20996.09375,-3264,2.0012262416,3696,2.2660944206,-7440,4.5616186389,833,122.8048780488,-2014,-50.7926829268,-12,0.7317073171,-1,0.0043478261,-72,-0.3130434783,131,-0.6390243902
3716345,21015.625,-3920,2.4034334764,4528,2.7762109135,-7040,4.316370325,833,122.8048780488,-2014,-50.7926829268,-12,0.7317073171,0,0,-75,-0.3260869565,127,-0.6195121951
3716985,21035.15625,-4064,2.4917228694,5536,3.3942366646,-6256,3.8356836297,148,111.6463414634,-1831,-9.0243902439,6,-0.3658536585,4,-0.0173913043,-83,-0.3608695652,128,-0.6243902439
3717625,21054.6875,-3456,2.1189454323,6432,3.9435928878,-6400,3.9239730227,148,111.6463414634,-1831,-9.0243902439,6,-0.3658536585,2,-0.0086956522,-78,-0.3391304348,123,-0.6
3718265,21074.21875,-2832,1.7363580625,7360,4.5125689761,-6672,4.0907418761,-278,95.6097560976,-1568,16.9512195122,13,-0.7926829268,-1,0.0043478261,-79,-0.3434782609,124,-0.6048780488
3718905,21093.75,-2560,1.5695892091,8336,5.110974862,-6304,3.8651134273,-189,80.5487804878,-1321,11.5243902439,39,-2.3780487805,1,-0.0043478261,-83,-0.3608695652,122,-0.5951219512
3719545,21113.28125,-2496,1.5303494788,8944,5.4837522992,-5696,3.4923359902,-189,80.5487804878,-1321,11.5243902439,39,-2.3780487805,2,-0.0086956522,-85,-0.3695652174,121,-0.5902439024
3720185,21132.8125,-2416,1.4812998161,9344,5.7290006131,-5280,3.2372777437,-192,63.1097560976,-1035,11.7073170732,76,-4.6341463415,1,-0.0043478261,-86,-0.3739130435,120,-0.5853658537
3720825,21152.34375,-2448,1.5009196812,9936,6.0919681177,-5552,3.4040465972,-17,47.3780487805,-777,1.0365853659,72,-4.3902439024,1,-0.0043478261,-85,-0.3695652174,120,-0.5853658537
3721465,21171.875,-2656,1.6284488044,10512,6.4451256898,-4752,2.9135499693,-17,47.3780487805,-777,1.0365853659,72,-4.3902439024,5,-0.0217391304,-92,-0.4,119,-0.5804878049
3722105,21191.40625,-3136,1.9227467811,10976,6.7296137339,-4048,2.4819129368,-71,29.4512195122,-483,4.3292682927,92,-5.6097560976,1,-0.0043478261,-92,-0.4,118,-0.5756097561
3722745,21210.9375,-2832,1.7363580625,11312,6.9356223176,-4160,2.5505824647,-71,29.4512195122,-483,4.3292682927,92,-5.6097560976,1,-0.0043478261,-89,-0.3869565217,121,-0.5902439024
3723385,21230.46875,-2080,1.2752912324,11616,7.1220110362,-4464,2.7369711833,-263,10.4268292683,-171,16.0365853659,38,-2.3170731707,2,-0.0086956522,-90,-0.3913043478,117,-0.5707317073
3724025,21250,-1824,1.1183323115,11744,7.2004904966,-4624,2.8350705089,79,-7.9268292683,130,-4.8170731707,100,-6.0975609756,1,-0.0043478261,-90,-0.3913043478,119,-0.5804878049
3724665,21269.53125,-1760,1.0790925812,11776,7.2201103617,-4576,2.8056407112,79,-7.9268292683,130,-4.8170731707,100,-6.0975609756,1,-0.0043478261,-90,-0.3913043478,119,-0.5804878049
3725305,21289.0625,-1776,1.0889025138,11504,7.0533415083,-4848,2.9724095647,313,-28.1707317073,462,-19.0853658537,105,-6.4024390244,1,-0.0043478261,-90,-0.3913043478,119,-0.5804878049
3725945,21308.59375,-1968,1.2066217045,11088,6.7982832618,-5280,3.2372777437,313,-28.1707317073,462,-19.0853658537,105,-6.4024390244,2,-0.0086956522,-90,-0.3913043478,119,-0.5804878049
3726585,21328.125,-2272,1.3930104231,10480,6.4255058246,-5648,3.4629061925,413,-46.1585365854,757,-25.1829268293,167,-10.1829268293,1,-0.0043478261,-86,-0.3739130435,119,-0.5804878049
3727225,21347.65625,-2736,1.6774984672,9600,5.885959534,-5520,3.3844267321,192,-60.487804878,992,-11.7073170732,209,-12.743902439,1,-0.0043478261,-88,-0.3826086957,121,-0.5902439024
3727865,21367.1875,-2704,1.6578786021,9088,5.5720416922,-5984,3.6689147762,192,-60.487804878,992,-11.7073170732,209,-12.743902439,2,-0.0086956522,-88,-0.3826086957,122,-0.5951219512
3728505,21386.71875,-1792,1.0987124464,8768,5.3758430411,-6912,4.2378908645,-271,-74.3292682927,1219,16.5243902439,102,-6.2195121951,2,-0.0086956522,-85,-0.3695652174,124,-0.6048780488
3729145,21406.25,-784,0.4806866953,8160,5.0030656039,-7536,4.6204782342,-333,-86.1585365854,1413,20.3048780488,101,-6.1585365854,-1,0.0043478261,-82,-0.3565217391,124,-0.6048780488
3729785,21425.78125,-864,0.5297363581,7088,4.3458001226,-7552,4.6302881668,-333,-86.1585365854,1413,20.3048780488,101,-6.1585365854,-2,0.0086956522,-81,-0.352173913,127,-0.6195121951
3730425,21445.3125,-1184,0.7259350092,6192,3.7964438994,-7488,4.5910484365,-314,-97.5609756098,1600,19.1463414634,49,-2.987804878,0,0,-81,-0.352173913,131,-0.6390243902
3731065,21464.84375,-736,0.4512568976,5792,3.5511955855,-8400,5.1502145923,-314,-97.5609756098,1600,19.1463414634,49,-2.987804878,-3,0.0130434783,-76,-0.3304347826,130,-0.6341463415
3731705,21484.375,-16,0.0098099326,5184,3.1784181484,-9312,5.709380748,-376,-110.7317073171,1816,22.9268292683,-94,5.7317073171,-4,0.0173913043,-72,-0.3130434783,133,-0.6487804878
3732345,21503.90625,-208,0.1275291232,3872,2.3740036787,-10032,6.1508277131,-112,-121.5243902439,1993,6.8292682927,-34,2.0731707317,-6,0.0260869565,-71,-0.3086956522,136,-0.6634146341
3732985,21523.4375,-800,0.4904966278,2768,1.6971183323,-11072,6.7884733292,-112,-121.5243902439,1993,6.8292682927,-34,2.0731707317,-6,0.0260869565,-63,-0.2739130435,139,-0.6780487805
3733625,21542.96875,-1056,0.6474555487,2048,1.2556713673,-11440,7.0141017781,-153,-128.1097560976,2101,9.3292682927,-56,3.4146341463,-9,0.0391304348,-64,-0.2782608696,139,-0.6780487805
3734265,21562.5,-1072,0.6572654813,1216,0.7455548743,-12320,7.5536480687,-153,-128.1097560976,2101,9.3292682927,-56,3.4146341463,-8,0.0347826087,-59,-0.2565217391,141,-0.687804878
3734905,21582.03125,-768,0.4708767627,160,0.0980993256,-14096,8.6425505825,-279,-136.9512195122,2246,17.012195122,-21,1.2804878049,-8,0.0347826087,-55,-0.2391304348,142,-0.6926829268
3735545,21601.5625,-240,0.1471489884,-944,-0.5787860208,-15216,9.3292458614,-34,-135.0609756098,2215,2.0731707317,-2,0.1219512195,-10,0.0434782609,-58,-0.252173913,144,-0.7024390244
3736185,21621.09375,-112,0.0686695279,-1792,-1.0987124464,-14640,8.9760882894,-34,-135.0609756098,2215,2.0731707317,-2,0.1219512195,-10,0.0434782609,-50,-0.2173913043,144,-0.7024390244
3736825,21640.625,-512,0.3139178418,-2960,-1.814837523,-15600,9.5646842428,112,-138.5975609756,2273,-6.8292682927,-66,4.0243902439,-8,0.0347826087,-50,-0.2173913043,146,-0.712195122
3737465,21660.15625,-512,0.3139178418,-3712,-2.2759043532,-15936,9.7706928265,137,-131.0365853659,2149,-8.3536585366,-75,4.5731707317,-10,0.0434782609,-41,-0.1782608696,145,-0.7073170732
3738105,21679.6875,-944,0.5787860208,-4464,-2.7369711833,-15008,9.2017167382,137,-131.0365853659,2149,-8.3536585366,-75,4.5731707317,-10,0.0434782609,-38,-0.1652173913,147,-0.7170731707
3738745,21699.21875,-1072,0.6572654813,-5744,-3.5217657879,-13824,8.475781729,-167,-133.5975609756,2191,10.1829268293,-20,1.2195121951,-11,0.047826087,-34,-0.147826087,148,-0.7219512195
3739385,21718.75,-944,0.5787860208,-7296,-4.4733292459,-15056,9.2311465359,-167,-133.5975609756,2191,10.1829268293,-20,1.2195121951,-13,0.0565217391,-33,-0.1434782609,147,-0.7170731707
3740025,21738.28125,16,-0.0098099326,-8016,-4.9147762109,-15920,9.7608828939,-649,-134.3902439024,2204,39.5731707317,-185,11.2804878049,-13,0.0565217391,-29,-0.1260869565,147,-0.7170731707
3740665,21757.8125,1264,-0.774984672,-7776,-4.7676272226,-14608,8.9564684243,-561,-131.5853658537,2158,34.2073170732,-309,18.8414634146,-16,0.0695652174,-21,-0.0913043478,147,-0.7170731707
3741305,21777.34375,1888,-1.1575720417,-8128,-4.9834457388,-12960,7.9460453709,-561,-131.5853658537,2158,34.2073170732,-309,18.8414634146,-18,0.0782608696,-15,-0.0652173913,147,-0.7170731707
3741945,21796.875,1632,-1.0006131208,-9744,-5.974248927,-14240,8.7308399755,-231,-147.256097561,2415,14.0853658537,-212,12.9268292683,-18,0.0782608696,-9,-0.0391304348,146,-0.712195122
3742585,21816.40625,1440,-0.8828939301,-10928,-6.7001839362,-15808,9.692213366,-231,-147.256097561,2415,14.0853658537,-212,12.9268292683,-18,0.0782608696,-8,-0.0347826087,143,-0.6975609756
3743225,21835.9375,1424,-0.8730839975,-11216,-6.8767627223,-14592,8.9466584917,221,-137.0731707317,2248,-13.4756097561,-156,9.512195122,-19,0.0826086957,-6,-0.0260869565,144,-0.7024390244
3743865,21855.46875,1552,-0.951563458,-12176,-7.4653586757,-13664,8.3776824034,239,-146.0975609756,2396,-14.5731707317,-141,8.5975609756,-21,0.0913043478,2,0.0086956522,139,-0.6780487805
3744505,21875,592,-0.3629675046,-14336,-8.7896995708,-14960,9.1722869405,239,-146.0975609756,2396,-14.5731707317,-141,8.5975609756,-18,0.0782608696,6,0.0260869565,140,-0.6829268293
3745145,21894.53125,112,-0.0686695279,-14832,-9.0938074801,-15600,9.5646842428,27,-139.6951219512,2291,-1.6463414634,-33,2.012195122,-19,0.0826086957,5,0.0217391304,136,-0.6634146341
3745785,21914.0625,912,-0.5591661557,-14304,-8.7700797057,-14400,8.828939301,27,-139.6951219512,2291,-1.6463414634,-33,2.012195122,-21,0.0913043478,11,0.047826087,134,-0.6536585366
3746425,21933.59375,1504,-0.9221336603,-14784,-9.0643776824,-13376,8.2011036174,-284,-127.8048780488,2096,17.3170731707,-143,8.7195121951,-23,0.1,14,0.0608695652,131,-0.6390243902
3747065,21953.125,1408,-0.863274065,-15360,-9.4175352544,-13904,8.5248313918,-248,-123.4756097561,2025,15.1219512195,-140,8.5365853659,-23,0.1,15,0.0652173913,131,-0.6390243902
3747705,21972.65625,960,-0.5885959534,-15712,-9.6333537707,-15328,9.3979153893,-248,-123.4756097561,2025,15.1219512195,-140,8.5365853659,-24,0.1043478261,20,0.0869565217,127,-0.6195121951
3748345,21992.1875,912,-0.5591661557,-15472,-9.4862047823,-14848,9.1036174126,-279,-107.6829268293,1766,17.012195122,-295,17.987804878,-27,0.1173913043,25,0.1086956522,126,-0.6146341463
3748985,22011.71875,880,-0.5395462906,-16320,-10.0061312078,-13328,8.1716738197,-400,-104.2073170732,1709,24.3902439024,-206,12.5609756098,-27,0.1173913043,27,0.1173913043,124,-0.6048780488
3749625,22031.25,448,-0.2746781116,-17392,-10.6633966891,-13136,8.0539546291,-400,-104.2073170732,1709,24.3902439024,-206,12.5609756098,-26,0.1130434783,24,0.1043478261,122,-0.5951219512
3750265,22050.78125,176,-0.1079092581,-16656,-10.2121397915,-14896,9.1330472103,-389,-83.1097560976,1363,23.7195121951,-381,23.2317073171,-27,0.1173913043,29,0.1260869565,120,-0.5853658537
3750905,22070.3125,1072,-0.6572654813,-15344,-9.4077253219,-15744,9.6529736358,-389,-83.1097560976,1363,23.7195121951,-381,23.2317073171,-27,0.1173913043,27,0.1173913043,121,-0.5902439024
3751545,22089.84375,1280,-0.7847946045,-15552,-9.5352544451,-14816,9.0839975475,18,-72.6219512195,1191,-1.0975609756,-284,17.3170731707,-31,0.1347826087,29,0.1260869565,118,-0.5756097561
3752185,22109.375,224,-0.1373390558,-16432,-10.0748007357,-14544,8.9172286941,252,-61.2195121951,1004,-15.3658536585,-292,17.8048780488,-28,0.1217391304,34,0.147826087,118,-0.5756097561
3752825,22128.90625,-992,0.6082158185,-16560,-10.1532801962,-14848,9.1036174126,252,-61.2195121951,1004,-15.3658536585,-292,17.8048780488,-29,0.1260869565,36,0.1565217391,116,-0.5658536585
3753465,22148.4375,-1440,0.8828939301,-16080,-9.8589822195,-16064,9.8491722869,-166,-41.2195121951,676,10.1219512195,-272,16.5853658537,-29,0.1260869565,31,0.1347826087,114,-0.556097561
3754105,22167.96875,-896,0.5493562232,-14768,-9.0545677498,-16864,10.3396689148,-166,-41.2195121951,676,10.1219512195,-272,16.5853658537,-32,0.1391304348,40,0.1739130435,111,-0.5414634146
3754745,22187.5,-304,0.1863887186,-14160,-8.6817903127,-16640,10.202329859,-307,-20.7926829268,341,18.7195121951,-252,15.3658536585,-32,0.1391304348,36,0.1565217391,114,-0.556097561
3755385,22207.03125,-288,0.176578786,-14736,-9.0349478847,-17472,10.7124463519,-26,-1.5243902439,25,1.5853658537,-21,1.2804878049,-32,0.1391304348,36,0.1565217391,114,-0.556097561
3756025,22226.5625,-240,0.1471489884,-15488,-9.4960147149,-18192,11.153893317,-26,-1.5243902439,25,1.5853658537,-21,1.2804878049,-29,0.1260869565,34,0.147826087,115,-0.5609756098
3756665,22246.09375,-384,0.2354383814,-15968,-9.7903126916,-18880,11.5757204169,151,24.1463414634,-396,-9.2073170732,176,-10.7317073171,-29,0.1260869565,33,0.1434782609,115,-0.5609756098
3757305,22265.625,-304,0.1863887186,-15872,-9.7314530963,-19328,11.8503985285,191,52.0731707317,-854,-11.6463414634,271,-16.5243902439,-30,0.1304347826,36,0.1565217391,113,-0.5512195122
3757945,22285.15625,-112,0.0686695279,-16304,-9.9963212753,-19728,12.0956468424,191,52.0731707317,-854,-11.6463414634,271,-16.5243902439,-28,0.1217391304,35,0.152173913,113,-0.5512195122
3758585,22304.6875,80,-0.0490496628,-16944,-10.3887185776,-20224,12.3997547517,332,81.6463414634,-1339,-20.243902439,321,-19.5731707317,-29,0.1260869565,33,0.1434782609,117,-0.5707317073
3759225,22324.21875,16,-0.0098099326,-17728,-10.8694052728,-20096,12.3212752912,332,81.6463414634,-1339,-20.243902439,321,-19.5731707317,-29,0.1260869565,31,0.1347826087,120,-0.5853658537
3759865,22343.75,-432,0.264868179,-18192,-11.153893317,-19920,12.2133660331,340,108.9634146341,-1787,-20.7317073171,410,-25,-25,0.1086956522,28,0.1217391304,120,-0.5853658537
3760505,22363.28125,-512,0.3139178418,-18528,-11.3599019007,-20064,12.3016554261,-21,136.9512195122,-2246,1.2804878049,334,-20.3658536585,-24,0.1043478261,24,0.1043478261,123,-0.6
3761145,22382.8125,224,-0.1373390558,-18800,-11.5266707541,-19728,12.0956468424,-21,136.9512195122,-2246,1.2804878049,334,-20.3658536585,-25,0.1086956522,21,0.0913043478,126,-0.6146341463
3761785,22402.34375,1072,-0.6572654813,-19200,-11.7719190681,-18560,11.3795217658,-342,159.3902439024,-2614,20.8536585366,264,-16.0975609756,-25,0.1086956522,16,0.0695652174,131,-0.6390243902
3762425,22421.875,1712,-1.0496627836,-19584,-12.0073574494,-17536,10.7516860822,-342,159.3902439024,-2614,20.8536585366,264,-16.0975609756,-25,0.1086956522,14,0.0608695652,132,-0.643902439
3763065,22441.40625,2128,-1.30472103,-19104,-11.7130594727,-16752,10.2709993869,-416,175.9146341463,-2885,25.3658536585,106,-6.4634146341,-24,0.1043478261,7,0.0304347826,137,-0.6682926829
3763705,22460.9375,2832,-1.7363580625,-18000,-11.0361741263,-16272,9.9767014102,-311,185.6707317073,-3045,18.9634146341,-26,1.5853658537,-24,0.1043478261,9,0.0391304348,138,-0.6731707317
3764345,22480.46875,3488,-2.1385652974,-17072,-10.467198038,-15856,9.7216431637,-311,185.6707317073,-3045,18.9634146341,-26,1.5853658537,-25,0.1086956522,1,0.0043478261,144,-0.7024390244
3764985,22500,3264,-2.0012262416,-15888,-9.7412630288,-15680,9.6137339056,252,189.1463414634,-3102,-15.3658536585,-69,4.2073170732,-24,0.1043478261,0,0,144,-0.7024390244
3765625,22519.53125,2592,-1.5892090742,-14656,-8.9858982219,-15600,9.5646842428,252,189.1463414634,-3102,-15.3658536585,-69,4.2073170732,-19,0.0826086957,-13,-0.0565217391,147,-0.7170731707
3766265,22539.0625,1616,-0.9908031882,-13840,-8.4855916616,-15504,9.5058246475,650,192.1341463415,-3151,-39.6341463415,19,-1.1585365854,-20,0.0869565217,-12,-0.052173913,147,-0.7170731707
3766905,22558.59375,592,-0.3629675046,-13056,-8.0049049663,-15616,9.5744941754,482,197.1951219512,-3234,-29.3902439024,110,-6.7073170732,-19,0.0826086957,-19,-0.0826086957,149,-0.7268292683
3767545,22578.125,224,-0.1373390558,-12176,-7.4653586757,-15232,9.339055794,482,197.1951219512,-3234,-29.3902439024,110,-6.7073170732,-16,0.0695652174,-28,-0.1217391304,149,-0.7268292683
3768185,22597.65625,704,-0.4316370325,-11216,-6.8767627223,-14192,8.7014101778,-5,201.2804878049,-3301,0.3048780488,80,-4.8780487805,-16,0.0695652174,-29,-0.1260869565,149,-0.7268292683
3768825,22617.1875,1136,-0.6965052115,-10112,-6.1998773758,-13232,8.1128142244,-223,198.8414634146,-3261,13.5975609756,-2,0.1219512195,-15,0.0652173913,-37,-0.1608695652,150,-0.7317073171
3769465,22636.71875,1072,-0.6572654813,-8752,-5.3660331085,-12416,7.612507664,-223,198.8414634146,-3261,13.5975609756,-2,0.1219512195,-15,0.0652173913,-42,-0.1826086957,151,-0.7365853659
3770105,22656.25,1280,-0.7847946045,-7040,-4.316370325,-11312,6.9356223176,-322,194.0243902439,-3182,19.6341463415,-202,12.3170731707,-13,0.0565217391,-50,-0.2173913043,152,-0.7414634146
3770745,22675.78125,1472,-0.9025137952,-5424,-3.3255671367,-10608,6.5039852851,-322,194.0243902439,-3182,19.6341463415,-202,12.3170731707,-16,0.0695652174,-49,-0.2130434783,150,-0.7317073171
3771385,22695.3125,1568,-0.9613733906,-3952,-2.4230533415,-10336,6.3372164316,-192,182.6829268293,-2996,11.7073170732,-296,18.0487804878,-15,0.0652173913,-56,-0.2434782609,148,-0.7219512195
3772025,22714.84375,1632,-1.0006131208,-2224,-1.3635806254,-9872,6.0527283875,309,171.0365853659,-2805,-18.8414634146,-272,16.5853658537,-14,0.0608695652,-59,-0.2565217391,146,-0.712195122
3772665,22734.375,1024,-0.6278356836,-672,-0.4120171674,-9056,5.5524218271,309,171.0365853659,-2805,-18.8414634146,-272,16.5853658537,-12,0.052173913,-68,-0.2956521739,144,-0.7024390244
3773305,22753.90625,160,-0.0980993256,688,0.4218270999,-8304,5.0913549969,716,156.2195121951,-2562,-43.6585365854,-123,7.5,-11,0.047826087,-67,-0.2913043478,143,-0.6975609756
3773945,22773.4375,-560,0.3433476395,2016,1.2360515021,-8112,4.9736358063,716,156.2195121951,-2562,-43.6585365854,-123,7.5,-8,0.0347826087,-71,-0.3086956522,138,-0.6731707317
3774585,22792.96875,-976,0.598405886,3376,2.0698957695,-7616,4.669527897,729,143.7195121951,-2357,-44.4512195122,-82,5,-7,0.0304347826,-79,-0.3434782609,136,-0.6634146341
3775225,22812.5,-1504,0.9221336603,4384,2.6879215205,-6976,4.2771305947,650,129.6341463415,-2126,-39.6341463415,-60,3.6585365854,-5,0.0217391304,-82,-0.3565217391,133,-0.6487804878
3775865,22832.03125,-1888,1.1575720417,5328,3.2667075414,-6480,3.9730226855,650,129.6341463415,-2126,-39.6341463415,-60,3.6585365854,-6,0.0260869565,-80,-0.347826087,129,-0.6292682927
3776505,22851.5625,-1984,1.216431637,6208,3.806253832,-5872,3.6002452483,474,115.0609756098,-1887,-28.9024390244,-69,4.2073170732,-1,0.0043478261,-85,-0.3695652174,126,-0.6146341463
3777145,22871.09375,-2336,1.4322501533,7248,4.4438994482,-5232,3.207847946,322,100,-1640,-19.6341463415,-26,1.5853658537,-1,0.0043478261,-88,-0.3826086957,124,-0.6048780488
3777785,22890.625,-2528,1.549969344,8320,5.1011649295,-4880,2.9920294298,322,100,-1640,-19.6341463415,-26,1.5853658537,-1,0.0043478261,-90,-0.3913043478,122,-0.5951219512
3778425,22910.15625,-2704,1.6578786021,9472,5.8074800736,-4448,2.7271612508,99,84.2073170732,-1381,-6.0365853659,-32,1.9512195122,3,-0.0130434783,-95,-0.4130434783,121,-0.5902439024
3779065,22929.6875,-2512,1.5401594114,10160,6.2293071735,-4160,2.5505824647,99,84.2073170732,-1381,-6.0365853659,-32,1.9512195122,0,0,-91,-0.3956521739,117,-0.5707317073
3779705,22949.21875,-2112,1.2949110975,10848,6.6511342735,-3968,2.4328632741,-104,65.7317073171,-1078,6.3414634146,-16,0.9756097561,-1,0.0043478261,-93,-0.4043478261,117,-0.5707317073
3780345,22968.75,-1904,1.1673819742,11488,7.0435315757,-4064,2.4917228694,54,47.1951219512,-774,-3.2926829268,19,-1.1585365854,1,-0.0043478261,-94,-0.4086956522,117,-0.5707317073
3780985,22988.28125,-1984,1.216431637,11824,7.2495401594,-3600,2.2072348253,54,47.1951219512,-774,-3.2926829268,19,-1.1585365854,0,0,-92,-0.4,114,-0.556097561
3781625,23007.8125,-2432,1.4911097486,12144,7.4457388105,-3328,2.0404659718,74,27.987804878,-459,-4.512195122,-6,0.3658536585,1,-0.0043478261,-92,-0.4,113,-0.5512195122
3782265,23027.34375,-2352,1.4420600858,12288,7.5340282036,-3600,2.2072348253,74,27.987804878,-459,-4.512195122,-6,0.3658536585,0,0,-96,-0.4173913043,114,-0.556097561
3782905,23046.875,-2000,1.2262415696,12160,7.4555487431,-3488,2.1385652974,-9,10.1829268293,-167,0.5487804878,-62,3.7804878049,3,-0.0130434783,-97,-0.4217391304,113,-0.5512195122
3783545,23066.40625,-2240,1.3733905579,12176,7.4653586757,-3536,2.167995095,92,-6.8292682927,112,-5.6097560976,-56,3.4146341463,1,-0.0043478261,-94,-0.4086956522,113,-0.5512195122
3784185,23085.9375,-2176,1.3341508277,12320,7.5536480687,-3984,2.4426732066,92,-6.8292682927,112,-5.6097560976,-56,3.4146341463,4,-0.0173913043,-93,-0.4043478261,115,-0.5609756098
3784825,23105.46875,-1904,1.1673819742,12272,7.524218271,-4352,2.6683016554,-35,-24.0853658537,395,2.1341463415,-42,2.5609756098,0,0,-94,-0.4086956522,113,-0.5512195122
3785465,23125,-1600,0.9809932557,11904,7.2985898222,-4944,3.03126916,33,-41.4024390244,679,-2.012195122,75,-4.5731707317,3,-0.0130434783,-95,-0.4130434783,116,-0.5658536585
3786105,23144.53125,-1584,0.9711833231,11296,6.925812385,-5232,3.207847946,33,-41.4024390244,679,-2.012195122,75,-4.5731707317,1,-0.0043478261,-91,-0.3956521739,114,-0.556097561
3786745,23164.0625,-2016,1.2360515021,11104,6.8080931944,-5280,3.2372777437,-44,-55.6097560976,912,2.6829268293,126,-7.6829268293,0,0,-93,-0.4043478261,117,-0.5707317073
3787385,23183.59375,-1744,1.0692826487,10816,6.6315144083,-5520,3.3844267321,-44,-55.6097560976,912,2.6829268293,126,-7.6829268293,0,0,-91,-0.3956521739,120,-0.5853658537
3788025,23203.125,-1008,0.6180257511,9696,5.9448191294,-5920,3.629675046,-424,-68.7804878049,1128,25.8536585366,73,-4.4512195122,-2,0.0086956522,-89,-0.3869565217,121,-0.5902439024
3788665,23222.65625,-1248,0.7651747394,8544,5.2385039853,-6272,3.8454935622,-612,-77.6829268293,1274,37.3170731707,39,-2.3780487805,-2,0.0086956522,-93,-0.4043478261,125,-0.6097560976
3789305,23242.1875,-1648,1.0104230533,8032,4.9245861435,-6464,3.9632127529,-612,-77.6829268293,1274,37.3170731707,39,-2.3780487805,-3,0.0130434783,-91,-0.3956521739,128,-0.6243902439
3789945,23261.71875,-1184,0.7259350092,8032,4.9245861435,-5984,3.6689147762,-1115,-91.0975609756,1494,67.987804878,-75,4.5731707317,-3,0.0130434783,-90,-0.3913043478,130,-0.6341463415
3790585,23281.25,-336,0.2060085837,7504,4.6008583691,-7200,4.4144696505,-1115,-91.0975609756,1494,67.987804878,-75,4.5731707317,-8,0.0347826087,-86,-0.3739130435,134,-0.6536585366
3791225,23300.78125,992,-0.6082158185,6208,3.806253832,-9168,5.621091355,-1065,-111.4024390244,1827,64.9390243902,-17,1.0365853659,-9,0.0391304348,-81,-0.352173913,138,-0.6731707317
3791865,23320.3125,1392,-0.8534641324,5232,3.207847946,-8784,5.3856529736,-453,-119.4512195122,1959,27.6219512195,186,-11.3414634146,-10,0.0434782609,-76,-0.3304347826,142,-0.6926829268
3792505,23339.84375,1056,-0.6474555487,4176,2.5603923973,-8416,5.1600245248,-453,-119.4512195122,1959,27.6219512195,186,-11.3414634146,-11,0.047826087,-79,-0.3434782609,142,-0.6926829268
3793145,23359.375,96,-0.0588595953,3072,1.8835070509,-9936,6.0919681177,-221,-136.0975609756,2232,13.4756097561,112,-6.8292682927,-12,0.052173913,-73,-0.3173913043,146,-0.712195122
3793785,23378.90625,384,-0.2354383814,2288,1.4028203556,-11184,6.8571428571,-221,-136.0975609756,2232,13.4756097561,112,-6.8292682927,-14,0.0608695652,-66,-0.2869565217,147,-0.7170731707
3794425,23398.4375,1296,-0.7946045371,1280,0.7847946045,-11008,6.749233599,-350,-138.8414634146,2277,21.3414634146,48,-2.9268292683,-15,0.0652173913,-58,-0.252173913,149,-0.7268292683
3795065,23417.96875,1664,-1.0202329859,-400,-0.2452483139,-10848,6.6511342735,-201,-152.743902439,2505,12.256097561,175,-10.6707317073,-19,0.0826086957,-55,-0.2391304348,148,-0.7219512195
3795705,23437.5,1184,-0.7259350092,-2032,-1.2458614347,-13200,8.0931943593,-201,-152.743902439,2505,12.256097561,175,-10.6707317073,-16,0.0695652174,-55,-0.2391304348,153,-0.7463414634
3796345,23457.03125,672,-0.4120171674,-2224,-1.3635806254,-14048,8.6131207848,142,-155.6097560976,2552,-8.6585365854,104,-6.3414634146,-18,0.0782608696,-49,-0.2130434783,152,-0.7414634146
3796985,23476.5625,768,-0.4708767627,-2384,-1.461679951,-12624,7.7400367872,-29,-160.5487804878,2633,1.7682926829,133,-8.1097560976,-20,0.0869565217,-42,-0.1826086957,152,-0.7414634146
3797625,23496.09375,1200,-0.7357449418,-4496,-2.7565910484,-12896,7.9068056407,-29,-160.5487804878,2633,1.7682926829,133,-8.1097560976,-18,0.0782608696,-37,-0.1608695652,153,-0.7463414634
3798265,23515.625,1056,-0.6474555487,-6912,-4.2378908645,-14880,9.1232372777,-101,-166.2804878049,2727,6.1585365854,282,-17.1951219512,-20,0.0869565217,-32,-0.1391304348,155,-0.756097561
3798905,23535.15625,1248,-0.7651747394,-7136,-4.3752299203,-14944,9.162477008,-101,-166.2804878049,2727,6.1585365854,282,-17.1951219512,-19,0.0826086957,-30,-0.1304347826,152,-0.7414634146
3799545,23554.6875,1568,-0.9613733906,-6992,-4.2869405273,-13456,8.2501532802,-260,-160.5487804878,2633,15.8536585366,166,-10.1219512195,-21,0.0913043478,-23,-0.1,153,-0.7463414634
3800185,23574.21875,2000,-1.2262415696,-8176,-5.0128755365,-12944,7.9362354384,-493,-175.8536585366,2884,30.0609756098,140,-8.5365853659,-24,0.1043478261,-20,-0.0869565217,151,-0.7365853659
3800825,23593.75,2608,-1.5990190067,-10832,-6.6413243409,-14880,9.1232372777,-493,-175.8536585366,2884,30.0609756098,140,-8.5365853659,-25,0.1086956522,-13,-0.0565217391,152,-0.7414634146
