Shimmer,Shimmer,Shimmer,Shimmer,Shimmer,Shimmer,Shimmer,Shimmer,Shimmer,Shimmer,Shimmer,Shimmer,Shimmer,Shimmer,Shimmer,Shimmer,Shimmer,Shimmer,Shimmer,Shimmer
Timestamp,Timestamp,Wide Range Accelerometer X,Wide Range Accelerometer X,Wide Range Accelerometer Y,Wide Range Accelerometer Y,Wide Range Accelerometer Z,Wide Range Accelerometer Z,Gyroscope X,Gyroscope X,Gyroscope Y,Gyroscope Y,Gyroscope Z,Gyroscope Z,Magnetometer X,Magnetometer X,Magnetometer Y,Magnetometer Y,Magnetometer Z,Magnetometer Z
RAW,CAL,RAW,CAL,RAW,CAL,RAW,CAL,RAW,CAL,RAW,CAL,RAW,CAL,RAW,CAL,RAW,CAL,RAW,CAL
no units,mSecs,no units,m/(sec^2),no units,m/(sec^2),no units,m/(sec^2),no units,deg/sec,no units,deg/sec,no units,deg/sec,no units,local,no units,local,no units,local
15979641,4804.6875,-2352,1.4420600858,3120,1.9129368486,-15904,9.7510729614,71,3.9024390244,-64,-4.3292682927,14,-0.8536585366,-1,0.0043478261,-56,-0.2434782609,138,-0.6731707317
15980281,4824.21875,-2256,1.3832004905,2944,1.8050275904,-16016,9.8197424893,54,4.6341463415,-76,-3.2926829268,21,-1.2804878049,-3,0.0130434783,-49,-0.2130434783,138,-0.6731707317
15980921,4843.75,-2208,1.3537706928,2912,1.7854077253,-15952,9.780502759,54,4.6341463415,-76,-3.2926829268,21,-1.2804878049,-4,0.0173913043,-52,-0.2260869565,137,-0.6682926829
15981561,4863.28125,-2192,1.3439607603,2992,1.8344573881,-15936,9.7706928265,75,4.5731707317,-75,-4.5731707317,22,-1.3414634146,-4,0.0173913043,-53,-0.2304347826,136,-0.6634146341
15982201,4882.8125,-2496,1.5303494788,3088,1.8933169834,-15824,9.7020232986,75,4.5731707317,-75,-4.5731707317,22,-1.3414634146,-3,0.0130434783,-56,-0.2434782609,138,-0.6731707317
15982841,4902.34375,-2576,1.5793991416,3040,1.8638871858,-15792,9.6824034335,68,4.2073170732,-69,-4.1463414634,53,-3.2317073171,-3,0.0130434783,-50,-0.2173913043,138,-0.6731707317
15983481,4921.875,-2432,1.4911097486,2992,1.8344573881,-15712,9.6333537707,-20,5.1219512195,-84,1.2195121951,53,-3.2317073171,-5,0.0217391304,-51,-0.2217391304,137,-0.6682926829
15984121,4941.40625,-2192,1.3439607603,3024,1.8540772532,-15664,9.603923973,-20,5.1219512195,-84,1.2195121951,53,-3.2317073171,-3,0.0130434783,-52,-0.2260869565,136,-0.6634146341
15984761,4960.9375,-2256,1.3832004905,3024,1.8540772532,-15472,9.4862047823,16,4.0853658537,-67,-0.9756097561,55,-3.3536585366,-2,0.0086956522,-54,-0.2347826087,137,-0.6682926829
15985401,4980.46875,-2096,1.2851011649,3040,1.8638871858,-15440,9.4665849172,16,4.0853658537,-67,-0.9756097561,55,-3.3536585366,-1,0.0043478261,-58,-0.252173913,139,-0.6780487805
15986041,5000,-1968,1.2066217045,3120,1.9129368486,-15408,9.4469650521,30,3.2317073171,-53,-1.8292682927,33,-2.012195122,-1,0.0043478261,-54,-0.2347826087,137,-0.6682926829
15986681,5019.53125,-2048,1.2556713673,3152,1.9325567137,-15472,9.4862047823,108,2.1341463415,-35,-6.5853658537,5,-0.3048780488,-5,0.0217391304,-55,-0.2391304348,139,-0.6780487805
15987321,5039.0625,-2288,1.4028203556,3008,1.8442673207,-15472,9.4862047823,108,2.1341463415,-35,-6.5853658537,5,-0.3048780488,-1,0.0043478261,-54,-0.2347826087,139,-0.6780487805
15987961,5058.59375,-2720,1.6676885346,3040,1.8638871858,-15200,9.3194359289,49,1.8902439024,-31,-2.987804878,1,-0.0609756098,-3,0.0130434783,-53,-0.2304347826,137,-0.6682926829
15988601,5078.125,-2784,1.7069282649,2992,1.8344573881,-15296,9.3782955242,49,1.8902439024,-31,-2.987804878,1,-0.0609756098,-1,0.0043478261,-55,-0.2391304348,137,-0.6682926829
15989241,5097.65625,-2384,1.461679951,2928,1.7952176579,-15376,9.427345187,-88,1.5243902439,-25,5.3658536585,24,-1.4634146341,-1,0.0043478261,-55,-0.2391304348,138,-0.6731707317
15989881,5117.1875,-2048,1.2556713673,2928,1.7952176579,-15312,9.3881054568,-69,0.4268292683,-7,4.2073170732,53,-3.2317073171,-3,0.0130434783,-56,-0.2434782609,138,-0.6731707317
15990521,5136.71875,-1840,1.128142244,2976,1.8246474555,-15552,9.5352544451,-69,0.4268292683,-7,4.2073170732,53,-3.2317073171,-1,0.0043478261,-54,-0.2347826087,138,-0.6731707317
15991161,5156.25,-1984,1.216431637,2976,1.8246474555,-15584,9.5548743102,42,-0.6097560976,10,-2.5609756098,39,-2.3780487805,-1,0.0043478261,-53,-0.2304347826,138,-0.6731707317
15991801,5175.78125,-2352,1.4420600858,2912,1.7854077253,-15600,9.5646842428,71,-0.8536585366,14,-4.3292682927,27,-1.6463414634,0,0,-56,-0.2434782609,139,-0.6780487805
15992441,5195.3125,-2688,1.6480686695,2896,1.7755977928,-15648,9.5941140405,71,-0.8536585366,14,-4.3292682927,27,-1.6463414634,-3,0.0130434783,-57,-0.247826087,137,-0.6682926829
15993081,5214.84375,-2496,1.5303494788,2864,1.7559779277,-15856,9.7216431637,-78,0.7317073171,-12,4.756097561,-5,0.3048780488,-3,0.0130434783,-57,-0.247826087,140,-0.6829268293
15993721,5234.375,-1856,1.1379521766,2656,1.6284488044,-15920,9.7608828939,-78,0.7317073171,-12,4.756097561,-5,0.3048780488,-3,0.0130434783,-56,-0.2434782609,138,-0.6731707317
15994361,5253.90625,-1936,1.1870018394,2672,1.638258737,-15904,9.7510729614,-8,1.1585365854,-19,0.487804878,19,-1.1585365854,-4,0.0173913043,-50,-0.2173913043,137,-0.6682926829
15995001,5273.4375,-2384,1.461679951,2816,1.72654813,-15968,9.7903126916,106,0.1829268293,-3,-6.4634146341,54,-3.2926829268,-5,0.0217391304,-51,-0.2217391304,138,-0.6731707317
15995641,5292.96875,-2752,1.6873083998,2704,1.6578786021,-16016,9.8197424893,106,0.1829268293,-3,-6.4634146341,54,-3.2926829268,-2,0.0086956522,-55,-0.2391304348,140,-0.6829268293
15996281,5312.5,-2736,1.6774984672,2720,1.6676885346,-15888,9.7412630288,-59,1.8902439024,-31,3.5975609756,40,-2.4390243902,-1,0.0043478261,-57,-0.247826087,138,-0.6731707317
15996921,5332.03125,-2208,1.3537706928,2528,1.549969344,-15824,9.7020232986,-59,1.8902439024,-31,3.5975609756,40,-2.4390243902,-2,0.0086956522,-54,-0.2347826087,136,-0.6634146341
15997561,5351.5625,-1776,1.0889025138,2480,1.5205395463,-15888,9.7412630288,-79,2.987804878,-49,4.8170731707,28,-1.7073170732,-3,0.0130434783,-58,-0.252173913,140,-0.6829268293
15998201,5371.09375,-1824,1.1183323115,2560,1.5695892091,-15872,9.7314530963,71,3.0487804878,-50,-4.3292682927,34,-2.0731707317,-1,0.0043478261,-53,-0.2304347826,139,-0.6780487805
15998841,5390.625,-2176,1.3341508277,2576,1.5793991416,-15856,9.7216431637,71,3.0487804878,-50,-4.3292682927,34,-2.0731707317,-1,0.0043478261,-54,-0.2347826087,140,-0.6829268293
15999481,5410.15625,-2528,1.549969344,2640,1.6186388719,-15760,9.6627835684,48,3.5365853659,-58,-2.9268292683,11,-0.6707317073,-1,0.0043478261,-55,-0.2391304348,138,-0.6731707317
16000121,5429.6875,-2320,1.4224402207,2704,1.6578786021,-15728,9.6431637032,-39,3.7804878049,-62,2.3780487805,-8,0.487804878,-3,0.0130434783,-54,-0.2347826087,138,-0.6731707317
16000761,5449.21875,-2112,1.2949110975,2704,1.6578786021,-15616,9.5744941754,-39,3.7804878049,-62,2.3780487805,-8,0.487804878,-5,0.0217391304,-55,-0.2391304348,139,-0.6780487805
16001401,5468.75,-1920,1.1771919068,2768,1.6971183323,-15568,9.5450643777,-4,3.2317073171,-53,0.243902439,-8,0.487804878,-6,0.0260869565,-51,-0.2217391304,137,-0.6682926829
16002041,5488.28125,-2048,1.2556713673,2832,1.7363580625,-15536,9.5254445126,-4,3.2317073171,-53,0.243902439,-8,0.487804878,-4,0.0173913043,-52,-0.2260869565,136,-0.6634146341
16002681,5507.8125,-2288,1.4028203556,2848,1.7461679951,-15488,9.4960147149,18,3.0487804878,-50,-1.0975609756,-11,0.6707317073,-3,0.0130434783,-51,-0.2217391304,136,-0.6634146341
16003321,5527.34375,-2336,1.4322501533,2784,1.7069282649,-15408,9.4469650521,-30,2.6219512195,-43,1.8292682927,-26,1.5853658537,-4,0.0173913043,-50,-0.2173913043,137,-0.6682926829
16003961,5546.875,-2256,1.3832004905,2896,1.7755977928,-15440,9.4665849172,-30,2.6219512195,-43,1.8292682927,-26,1.5853658537,-1,0.0043478261,-54,-0.2347826087,139,-0.6780487805
16004601,5566.40625,-2208,1.3537706928,2864,1.7559779277,-15456,9.4763948498,-4,1.4024390244,-23,0.243902439,-17,1.0365853659,-4,0.0173913043,-50,-0.2173913043,136,-0.6634146341
16005241,5585.9375,-2288,1.4028203556,2816,1.72654813,-15520,9.51563458,-4,1.4024390244,-23,0.243902439,-17,1.0365853659,-4,0.0173913043,-50,-0.2173913043,136,-0.6634146341
16005881,5605.46875,-2432,1.4911097486,2864,1.7559779277,-15536,9.5254445126,-2,0.9756097561,-16,0.1219512195,-10,0.6097560976,-6,0.0260869565,-48,-0.2086956522,136,-0.6634146341
16006521,5625,-2368,1.4518700184,2832,1.7363580625,-15696,9.6235438381,13,0.6707317073,-11,-0.7926829268,7,-0.4268292683,-6,0.0260869565,-50,-0.2173913043,137,-0.6682926829
16007161,5644.53125,-2320,1.4224402207,2720,1.6676885346,-15712,9.6333537707,13,0.6707317073,-11,-0.7926829268,7,-0.4268292683,-4,0.0173913043,-50,-0.2173913043,137,-0.6682926829
16007801,5664.0625,-2496,1.5303494788,2752,1.6873083998,-15856,9.7216431637,4,0.9756097561,-16,-0.243902439,14,-0.8536585366,-6,0.0260869565,-49,-0.2130434783,138,-0.6731707317
16008441,5683.59375,-2432,1.4911097486,2736,1.6774984672,-15824,9.7020232986,4,0.9756097561,-16,-0.243902439,14,-0.8536585366,-7,0.0304347826,-49,-0.2130434783,137,-0.6682926829
16009081,5703.125,-2224,1.3635806254,2752,1.6873083998,-15792,9.6824034335,-33,1.7073170732,-28,2.012195122,1,-0.0609756098,-3,0.0130434783,-52,-0.2260869565,137,-0.6682926829
16009721,5722.65625,-2208,1.3537706928,2608,1.5990190067,-15696,9.6235438381,29,1.2804878049,-21,-1.7682926829,7,-0.4268292683,-4,0.0173913043,-52,-0.2260869565,136,-0.6634146341
16010361,5742.1875,-2272,1.3930104231,2640,1.6186388719,-15712,9.6333537707,29,1.2804878049,-21,-1.7682926829,7,-0.4268292683,-1,0.0043478261,-54,-0.2347826087,136,-0.6634146341
16011001,5761.71875,-2272,1.3930104231,2720,1.6676885346,-15744,9.6529736358,11,1.5853658537,-26,-0.6707317073,5,-0.3048780488,-4,0.0173913043,-49,-0.2130434783,136,-0.6634146341
16011641,5781.25,-2416,1.4812998161,2688,1.6480686695,-15776,9.6725935009,-43,1.8292682927,-30,2.6219512195,7,-0.4268292683,-3,0.0130434783,-50,-0.2173913043,138,-0.6731707317
16012281,5800.78125,-2352,1.4420600858,2688,1.6480686695,-15648,9.5941140405,-43,1.8292682927,-30,2.6219512195,7,-0.4268292683,-5,0.0217391304,-49,-0.2130434783,136,-0.6634146341
16012921,5820.3125,-2048,1.2556713673,2656,1.6284488044,-15664,9.603923973,-42,1.7073170732,-28,2.5609756098,11,-0.6707317073,-5,0.0217391304,-48,-0.2086956522,135,-0.6585365854
16013561,5839.84375,-1888,1.1575720417,2560,1.5695892091,-15744,9.6529736358,-42,1.7073170732,-28,2.5609756098,11,-0.6707317073,-2,0.0086956522,-58,-0.252173913,141,-0.687804878
16014201,5859.375,-1904,1.1673819742,2576,1.5793991416,-15664,9.603923973,23,1.0975609756,-18,-1.4024390244,1,-0.0609756098,-6,0.0260869565,-50,-0.2173913043,137,-0.6682926829
16014841,5878.90625,-2160,1.3243408952,2560,1.5695892091,-15648,9.5941140405,1,1.5243902439,-25,-0.0609756098,-13,0.7926829268,-4,0.0173913043,-51,-0.2217391304,137,-0.6682926829
16015481,5898.4375,-2320,1.4224402207,2560,1.5695892091,-15696,9.6235438381,1,1.5243902439,-25,-0.0609756098,-13,0.7926829268,-4,0.0173913043,-52,-0.2260869565,137,-0.6682926829
16016121,5917.96875,-2224,1.3635806254,2560,1.5695892091,-15632,9.5843041079,-66,1.9512195122,-32,4.0243902439,-26,1.5853658537,-1,0.0043478261,-56,-0.2434782609,138,-0.6731707317
16016761,5937.5,-1952,1.1968117719,2544,1.5597792765,-15616,9.5744941754,-66,1.9512195122,-32,4.0243902439,-26,1.5853658537,-7,0.0304347826,-52,-0.2260869565,137,-0.6682926829
16017401,5957.03125,-1904,1.1673819742,2512,1.5401594114,-15664,9.603923973,-9,1.4024390244,-23,0.5487804878,-13,0.7926829268,-5,0.0217391304,-49,-0.2130434783,138,-0.6731707317
16018041,5976.5625,-2064,1.2654812998,2544,1.5597792765,-15600,9.5646842428,44,0.4268292683,-7,-2.6829268293,-15,0.9146341463,-2,0.0086956522,-55,-0.2391304348,140,-0.6829268293
16018681,5996.09375,-2272,1.3930104231,2592,1.5892090742,-15664,9.603923973,44,0.4268292683,-7,-2.6829268293,-15,0.9146341463,-4,0.0173913043,-56,-0.2434782609,140,-0.6829268293
16019321,6015.625,-2368,1.4518700184,2528,1.549969344,-15584,9.5548743102,13,0.6707317073,-11,-0.7926829268,-24,1.4634146341,-3,0.0130434783,-50,-0.2173913043,138,-0.6731707317
16019961,6035.15625,-2384,1.461679951,2464,1.5107296137,-15760,9.6627835684,-1,0.487804878,-8,0.0609756098,-20,1.2195121951,-3,0.0130434783,-51,-0.2217391304,138,-0.6731707317
16020601,6054.6875,-2288,1.4028203556,2528,1.549969344,-15824,9.7020232986,-1,0.487804878,-8,0.0609756098,-20,1.2195121951,-3,0.0130434783,-56,-0.2434782609,137,-0.6682926829
16021241,6074.21875,-2240,1.3733905579,2432,1.4911097486,-15792,9.6824034335,-6,0.487804878,-8,0.3658536585,4,-0.243902439,-3,0.0130434783,-56,-0.2434782609,140,-0.6829268293
16021881,6093.75,-2288,1.4028203556,2416,1.4812998161,-15792,9.6824034335,-6,0.487804878,-8,0.3658536585,4,-0.243902439,-5,0.0217391304,-52,-0.2260869565,137,-0.6682926829
16022521,6113.28125,-2224,1.3635806254,2352,1.4420600858,-15824,9.7020232986,-21,0.3658536585,-6,1.2804878049,4,-0.243902439,-1,0.0043478261,-52,-0.2260869565,138,-0.6731707317
16023161,6132.8125,-2064,1.2654812998,2400,1.4714898835,-15920,9.7608828939,0,0.6707317073,-11,0,-2,0.1219512195,-3,0.0130434783,-50,-0.2173913043,139,-0.6780487805
16023801,6152.34375,-2192,1.3439607603,2416,1.4812998161,-15856,9.7216431637,0,0.6707317073,-11,0,-2,0.1219512195,-4,0.0173913043,-53,-0.2304347826,140,-0.6829268293
16024441,6171.875,-2256,1.3832004905,2336,1.4322501533,-15776,9.6725935009,-18,0.8536585366,-14,1.0975609756,-5,0.3048780488,-1,0.0043478261,-56,-0.2434782609,139,-0.6780487805
16025081,6191.40625,-2112,1.2949110975,2240,1.3733905579,-15920,9.7608828939,-18,0.8536585366,-14,1.0975609756,-5,0.3048780488,-6,0.0260869565,-47,-0.2043478261,137,-0.6682926829
16025721,6210.9375,-2016,1.2360515021,2336,1.4322501533,-15952,9.780502759,-17,1.5853658537,-26,1.0365853659,-17,1.0365853659,-5,0.0217391304,-48,-0.2086956522,138,-0.6731707317
16026361,6230.46875,-2144,1.3145309626,2272,1.3930104231,-15872,9.7314530963,15,1.6463414634,-27,-0.9146341463,-10,0.6097560976,-4,0.0173913043,-50,-0.2173913043,138,-0.6731707317
16027001,6250,-2320,1.4224402207,2272,1.3930104231,-15856,9.7216431637,15,1.6463414634,-27,-0.9146341463,-10,0.6097560976,-5,0.0217391304,-51,-0.2217391304,139,-0.6780487805
16027641,6269.53125,-2496,1.5303494788,2272,1.3930104231,-15808,9.692213366,-20,2.4390243902,-40,1.2195121951,-3,0.1829268293,-4,0.0173913043,-48,-0.2086956522,136,-0.6634146341
16028281,6289.0625,-2352,1.4420600858,2240,1.3733905579,-15824,9.7020232986,-20,2.4390243902,-40,1.2195121951,-3,0.1829268293,-5,0.0217391304,-51,-0.2217391304,136,-0.6634146341
16028921,6308.59375,-2160,1.3243408952,2304,1.4126302882,-15808,9.692213366,-38,2.8048780488,-46,2.3170731707,3,-0.1829268293,-5,0.0217391304,-52,-0.2260869565,139,-0.6780487805
16029561,6328.125,-2128,1.30472103,2336,1.4322501533,-15792,9.6824034335,18,2.5,-41,-1.0975609756,9,-0.5487804878,-4,0.0173913043,-50,-0.2173913043,137,-0.6682926829
16030201,6347.65625,-2320,1.4224402207,2384,1.461679951,-15760,9.6627835684,18,2.5,-41,-1.0975609756,9,-0.5487804878,-3,0.0130434783,-55,-0.2391304348,140,-0.6829268293
16030841,6367.1875,-2304,1.4126302882,2336,1.4322501533,-15728,9.6431637032,-6,2.3780487805,-39,0.3658536585,7,-0.4268292683,-4,0.0173913043,-52,-0.2260869565,140,-0.6829268293
16031481,6386.71875,-2240,1.3733905579,2320,1.4224402207,-15664,9.603923973,-15,2.1341463415,-35,0.9146341463,0,0,-2,0.0086956522,-54,-0.2347826087,140,-0.6829268293
16032121,6406.25,-2160,1.3243408952,2272,1.3930104231,-15744,9.6529736358,-15,2.1341463415,-35,0.9146341463,0,0,-3,0.0130434783,-56,-0.2434782609,141,-0.687804878
16032761,6425.78125,-2192,1.3439607603,2240,1.3733905579,-15680,9.6137339056,-5,2.012195122,-33,0.3048780488,3,-0.1829268293,-3,0.0130434783,-52,-0.2260869565,141,-0.687804878
16033401,6445.3125,-2208,1.3537706928,2208,1.3537706928,-15808,9.692213366,-5,2.012195122,-33,0.3048780488,3,-0.1829268293,-3,0.0130434783,-51,-0.2217391304,138,-0.6731707317
16034041,6464.84375,-2176,1.3341508277,2240,1.3733905579,-15760,9.6627835684,-9,1.7682926829,-29,0.5487804878,19,-1.1585365854,-4,0.0173913043,-55,-0.2391304348,139,-0.6780487805
16034681,6484.375,-2128,1.30472103,2320,1.4224402207,-15792,9.6824034335,-19,1.7073170732,-28,1.1585365854,18,-1.0975609756,-2,0.0086956522,-54,-0.2347826087,141,-0.687804878
16035321,6503.90625,-2080,1.2752912324,2400,1.4714898835,-15728,9.6431637032,-19,1.7073170732,-28,1.1585365854,18,-1.0975609756,-2,0.0086956522,-53,-0.2304347826,140,-0.6829268293
16035961,6523.4375,-2080,1.2752912324,2336,1.4322501533,-15792,9.6824034335,-31,1.3414634146,-22,1.8902439024,10,-0.6097560976,-3,0.0130434783,-52,-0.2260869565,141,-0.687804878
16036601,6542.96875,-2096,1.2851011649,2368,1.4518700184,-15824,9.7020232986,-31,1.3414634146,-22,1.8902439024,10,-0.6097560976,-4,0.0173913043,-52,-0.2260869565,140,-0.6829268293
16037241,6562.5,-2160,1.3243408952,2336,1.4322501533,-15824,9.7020232986,-7,1.7073170732,-28,0.4268292683,10,-0.6097560976,-4,0.0173913043,-50,-0.2173913043,139,-0.6780487805
16037881,6582.03125,-2032,1.2458614347,2304,1.4126302882,-15904,9.7510729614,-1,2.256097561,-37,0.0609756098,9,-0.5487804878,-4,0.0173913043,-50,-0.2173913043,140,-0.6829268293
16038521,6601.5625,-1984,1.216431637,2288,1.4028203556,-15856,9.7216431637,-1,2.256097561,-37,0.0609756098,9,-0.5487804878,-3,0.0130434783,-57,-0.247826087,141,-0.687804878
16039161,6621.09375,-2112,1.2949110975,2320,1.4224402207,-15856,9.7216431637,17,1.9512195122,-32,-1.0365853659,18,-1.0975609756,-6,0.0260869565,-47,-0.2043478261,137,-0.6682926829
16039801,6640.625,-2208,1.3537706928,2256,1.3832004905,-15872,9.7314530963,-14,2.3170731707,-38,0.8536585366,10,-0.6097560976,-6,0.0260869565,-51,-0.2217391304,139,-0.6780487805
16040441,6660.15625,-2096,1.2851011649,2272,1.3930104231,-15872,9.7314530963,-14,2.3170731707,-38,0.8536585366,10,-0.6097560976,-2,0.0086956522,-52,-0.2260869565,139,-0.6780487805
16041081,6679.6875,-2080,1.2752912324,2240,1.3733905579,-15840,9.7118332311,-16,2.8048780488,-46,0.9756097561,7,-0.4268292683,-1,0.0043478261,-55,-0.2391304348,139,-0.6780487805
16041721,6699.21875,-2016,1.2360515021,2288,1.4028203556,-15872,9.7314530963,-16,2.8048780488,-46,0.9756097561,7,-0.4268292683,-4,0.0173913043,-48,-0.2086956522,140,-0.6829268293
16042361,6718.75,-1952,1.1968117719,2336,1.4322501533,-15840,9.7118332311,-3,2.987804878,-49,0.1829268293,4,-0.243902439,-4,0.0173913043,-52,-0.2260869565,140,-0.6829268293
16043001,6738.28125,-2016,1.2360515021,2320,1.4224402207,-15904,9.7510729614,18,3.2317073171,-53,-1.0975609756,-2,0.1219512195,-2,0.0086956522,-56,-0.2434782609,141,-0.687804878
16043641,6757.8125,-2112,1.2949110975,2320,1.4224402207,-15888,9.7412630288,18,3.2317073171,-53,-1.0975609756,-2,0.1219512195,-5,0.0217391304,-53,-0.2304347826,139,-0.6780487805
16044281,6777.34375,-2160,1.3243408952,2224,1.3635806254,-15792,9.6824034335,-9,3.4756097561,-57,0.5487804878,-5,0.3048780488,-1,0.0043478261,-54,-0.2347826087,140,-0.6829268293
16044921,6796.875,-2096,1.2851011649,2224,1.3635806254,-15888,9.7412630288,-9,3.4756097561,-57,0.5487804878,-5,0.3048780488,-6,0.0260869565,-50,-0.2173913043,140,-0.6829268293
16045561,6816.40625,-2160,1.3243408952,2256,1.3832004905,-15872,9.7314530963,-10,3.4756097561,-57,0.6097560976,4,-0.243902439,-2,0.0086956522,-55,-0.2391304348,141,-0.687804878
16046201,6835.9375,-2144,1.3145309626,2320,1.4224402207,-15808,9.692213366,-17,3.4146341463,-56,1.0365853659,5,-0.3048780488,-3,0.0130434783,-55,-0.2391304348,140,-0.6829268293
16046841,6855.46875,-2112,1.2949110975,2320,1.4224402207,-15792,9.6824034335,-17,3.4146341463,-56,1.0365853659,5,-0.3048780488,-4,0.0173913043,-56,-0.2434782609,139,-0.6780487805
16047481,6875,-2032,1.2458614347,2304,1.4126302882,-15712,9.6333537707,-18,3.4756097561,-57,1.0975609756,-6,0.3658536585,-5,0.0217391304,-47,-0.2043478261,138,-0.6731707317
16048121,6894.53125,-1904,1.1673819742,2240,1.3733905579,-15728,9.6431637032,-18,3.4756097561,-57,1.0975609756,-6,0.3658536585,-4,0.0173913043,-51,-0.2217391304,141,-0.687804878
16048761,6914.0625,-1952,1.1968117719,2336,1.4322501533,-15776,9.6725935009,13,3.3536585366,-55,-0.7926829268,-5,0.3048780488,-4,0.0173913043,-52,-0.2260869565,140,-0.6829268293
16049401,6933.59375,-2032,1.2458614347,2336,1.4322501533,-15712,9.6333537707,10,3.5365853659,-58,-0.6097560976,-8,0.487804878,-5,0.0217391304,-48,-0.2086956522,138,-0.6731707317
16050041,6953.125,-2032,1.2458614347,2336,1.4322501533,-15680,9.6137339056,10,3.5365853659,-58,-0.6097560976,-8,0.487804878,-4,0.0173913043,-50,-0.2173913043,139,-0.6780487805
16050681,6972.65625,-2096,1.2851011649,2352,1.4420600858,-15664,9.603923973,-10,3.2317073171,-53,0.6097560976,-10,0.6097560976,-4,0.0173913043,-55,-0.2391304348,139,-0.6780487805
16051321,6992.1875,-2016,1.2360515021,2192,1.3439607603,-15712,9.6333537707,-8,3.1097560976,-51,0.487804878,-3,0.1829268293,-5,0.0217391304,-53,-0.2304347826,139,-0.6780487805
16051961,7011.71875,-1968,1.2066217045,2208,1.3537706928,-15760,9.6627835684,-8,3.1097560976,-51,0.487804878,-3,0.1829268293,-4,0.0173913043,-50,-0.2173913043,138,-0.6731707317
16052601,7031.25,-1984,1.216431637,2288,1.4028203556,-15696,9.6235438381,6,2.3780487805,-39,-0.3658536585,3,-0.1829268293,-4,0.0173913043,-53,-0.2304347826,140,-0.6829268293
16053241,7050.78125,-2032,1.2458614347,2256,1.3832004905,-15792,9.6824034335,6,2.3780487805,-39,-0.3658536585,3,-0.1829268293,-5,0.0217391304,-52,-0.2260869565,139,-0.6780487805
16053881,7070.3125,-2144,1.3145309626,2208,1.3537706928,-15696,9.6235438381,2,2.4390243902,-40,-0.1219512195,-3,0.1829268293,-2,0.0086956522,-53,-0.2304347826,138,-0.6731707317
16054521,7089.84375,-2112,1.2949110975,2224,1.3635806254,-15680,9.6137339056,-23,2.8048780488,-46,1.4024390244,-12,0.7317073171,-5,0.0217391304,-51,-0.2217391304,138,-0.6731707317
16055161,7109.375,1920,-1.1771919068,-5568,-3.4138565297,-15424,9.4567749847,-23,2.8048780488,-46,1.4024390244,-12,0.7317073171,-4,0.0173913043,-53,-0.2304347826,141,-0.687804878
16055801,7128.90625,-384,0.2354383814,2112,1.2949110975,-13872,8.5052115267,607,-17.3780487805,285,-37.012195122,-110,6.7073170732,-3,0.0130434783,-54,-0.2347826087,139,-0.6780487805
16056441,7148.4375,-3328,2.0404659718,2112,1.2949110975,-15072,9.2409564684,607,-17.3780487805,285,-37.012195122,-110,6.7073170732,1,-0.0043478261,-56,-0.2434782609,137,-0.6682926829
16057081,7167.96875,-5104,3.1293684856,2848,1.7461679951,-15568,9.5450643777,853,-4.6951219512,77,-52.012195122,-8,0.487804878,1,-0.0043478261,-57,-0.247826087,136,-0.6634146341
16057721,7187.5,-4672,2.8645003066,2176,1.3341508277,-16128,9.8884120172,-371,-3.1097560976,51,22.6219512195,-13,0.7926829268,0,0,-53,-0.2304347826,134,-0.6536585366
16058361,7207.03125,-3424,2.0993255671,2016,1.2360515021,-16448,10.0846106683,-371,-3.1097560976,51,22.6219512195,-13,0.7926829268,-2,0.0086956522,-50,-0.2173913043,136,-0.6634146341
16059001,7226.5625,-3040,1.8638871858,1664,1.0202329859,-16384,10.0453709381,-655,-1.8292682927,30,39.9390243902,36,-2.1951219512,-1,0.0043478261,-56,-0.2434782609,138,-0.6731707317
16059641,7246.09375,-1680,1.0300429185,1776,1.0889025138,-16400,10.0551808706,-385,3.3536585366,-55,23.4756097561,-24,1.4634146341,-2,0.0086956522,-53,-0.2304347826,139,-0.6780487805
16060281,7265.625,-1376,0.8436541999,1952,1.1968117719,-16672,10.2219497241,-385,3.3536585366,-55,23.4756097561,-24,1.4634146341,-3,0.0130434783,-52,-0.2260869565,138,-0.6731707317
16060921,7285.15625,-1648,1.0104230533,1984,1.216431637,-16640,10.202329859,44,4.2073170732,-69,-2.6829268293,-5,0.3048780488,-1,0.0043478261,-57,-0.247826087,141,-0.687804878
16061561,7304.6875,-2128,1.30472103,2000,1.2262415696,-16304,9.9963212753,44,4.2073170732,-69,-2.6829268293,-5,0.3048780488,-3,0.0130434783,-55,-0.2391304348,140,-0.6829268293
16062201,7324.21875,-2464,1.5107296137,2080,1.2752912324,-16128,9.8884120172,105,5.3658536585,-88,-6.4024390244,-22,1.3414634146,-3,0.0130434783,-53,-0.2304347826,139,-0.6780487805
16062841,7343.75,-2608,1.5990190067,2064,1.2654812998,-15920,9.7608828939,-1,5.6707317073,-93,0.0609756098,-23,1.4024390244,-5,0.0217391304,-53,-0.2304347826,139,-0.6780487805
16063481,7363.28125,-2528,1.549969344,2016,1.2360515021,-15920,9.7608828939,-1,5.6707317073,-93,0.0609756098,-23,1.4024390244,-1,0.0043478261,-51,-0.2217391304,138,-0.6731707317
16064121,7382.8125,-2288,1.4028203556,2064,1.2654812998,-15856,9.7216431637,-81,6.0975609756,-100,4.9390243902,-26,1.5853658537,-1,0.0043478261,-56,-0.2434782609,140,-0.6829268293
16064761,7402.34375,-2176,1.3341508277,2096,1.2851011649,-15712,9.6333537707,-81,6.0975609756,-100,4.9390243902,-26,1.5853658537,-4,0.0173913043,-52,-0.2260869565,138,-0.6731707317
16065401,7421.875,-2208,1.3537706928,2080,1.2752912324,-15728,9.6431637032,-23,6.2804878049,-103,1.4024390244,-15,0.9146341463,-5,0.0217391304,-52,-0.2260869565,139,-0.6780487805
16066041,7441.40625,-2256,1.3832004905,2128,1.30472103,-15776,9.6725935009,26,5.9146341463,-97,-1.5853658537,-10,0.6097560976,-3,0.0130434783,-56,-0.2434782609,140,-0.6829268293
16066681,7460.9375,-2432,1.4911097486,2240,1.3733905579,-15648,9.5941140405,26,5.9146341463,-97,-1.5853658537,-10,0.6097560976,-3,0.0130434783,-52,-0.2260869565,137,-0.6682926829
16067321,7480.46875,-2368,1.4518700184,2192,1.3439607603,-15600,9.5646842428,-16,5.6707317073,-93,0.9756097561,-6,0.3658536585,-6,0.0260869565,-49,-0.2130434783,139,-0.6780487805
16067961,7500,-2256,1.3832004905,2288,1.4028203556,-15632,9.5843041079,-16,5.6707317073,-93,0.9756097561,-6,0.3658536585,-5,0.0217391304,-50,-0.2173913043,137,-0.6682926829
16068601,7519.53125,-2208,1.3537706928,2256,1.3832004905,-15600,9.5646842428,-32,4.8170731707,-79,1.9512195122,0,0,-2,0.0086956522,-56,-0.2434782609,139,-0.6780487805
16069241,7539.0625,-2112,1.2949110975,2352,1.4420600858,-15648,9.5941140405,31,4.0243902439,-66,-1.8902439024,-3,0.1829268293,-3,0.0130434783,-55,-0.2391304348,138,-0.6731707317
16069881,7558.59375,-2320,1.4224402207,2304,1.4126302882,-15584,9.5548743102,31,4.0243902439,-66,-1.8902439024,-3,0.1829268293,-4,0.0173913043,-57,-0.247826087,140,-0.6829268293
16070521,7578.125,-2320,1.4224402207,2256,1.3832004905,-15664,9.603923973,3,4.3292682927,-71,-0.1829268293,-4,0.243902439,-1,0.0043478261,-57,-0.247826087,139,-0.6780487805
16071161,7597.65625,-2368,1.4518700184,2272,1.3930104231,-15600,9.5646842428,-11,3.9634146341,-65,0.6707317073,-6,0.3658536585,-3,0.0130434783,-52,-0.2260869565,139,-0.6780487805
16071801,7617.1875,-2192,1.3439607603,2256,1.3832004905,-15664,9.603923973,-11,3.9634146341,-65,0.6707317073,-6,0.3658536585,-3,0.0130434783,-51,-0.2217391304,138,-0.6731707317
16072441,7636.71875,-2128,1.30472103,2208,1.3537706928,-15632,9.5843041079,0,3.5365853659,-58,0,-4,0.243902439,-4,0.0173913043,-48,-0.2086956522,137,-0.6682926829
16073081,7656.25,-2112,1.2949110975,2256,1.3832004905,-15696,9.6235438381,0,3.5365853659,-58,0,-4,0.243902439,-3,0.0130434783,-52,-0.2260869565,140,-0.6829268293
16073721,7675.78125,-2304,1.4126302882,2304,1.4126302882,-15696,9.6235438381,11,3.2317073171,-53,-0.6707317073,-30,1.8292682927,-3,0.0130434783,-54,-0.2347826087,138,-0.6731707317
16074361,7695.3125,-2400,1.4714898835,2256,1.3832004905,-15728,9.6431637032,-17,3.2317073171,-53,1.0365853659,-19,1.1585365854,-3,0.0130434783,-54,-0.2347826087,138,-0.6731707317
16075001,7714.84375,-2304,1.4126302882,2224,1.3635806254,-15808,9.692213366,-17,3.2317073171,-53,1.0365853659,-19,1.1585365854,-4,0.0173913043,-51,-0.2217391304,138,-0.6731707317
16075641,7734.375,-2240,1.3733905579,2288,1.4028203556,-15792,9.6824034335,-13,3.4756097561,-57,0.7926829268,-10,0.6097560976,-3,0.0130434783,-52,-0.2260869565,138,-0.6731707317
16076281,7753.90625,-2240,1.3733905579,2272,1.3930104231,-15776,9.6725935009,-13,3.4756097561,-57,0.7926829268,-10,0.6097560976,-4,0.0173913043,-52,-0.2260869565,138,-0.6731707317
16076921,7773.4375,-2320,1.4224402207,2336,1.4322501533,-15760,9.6627835684,-2,3.5975609756,-59,0.1219512195,-20,1.2195121951,-3,0.0130434783,-53,-0.2304347826,140,-0.6829268293
16077561,7792.96875,-2400,1.4714898835,2352,1.4420600858,-15760,9.6627835684,-3,3.5365853659,-58,0.1829268293,-21,1.2804878049,-3,0.0130434783,-53,-0.2304347826,138,-0.6731707317
16078201,7812.5,-2480,1.5205395463,2304,1.4126302882,-15728,9.6431637032,-3,3.5365853659,-58,0.1829268293,-21,1.2804878049,-1,0.0043478261,-53,-0.2304347826,139,-0.6780487805
16078841,7832.03125,-2432,1.4911097486,2336,1.4322501533,-15728,9.6431637032,-24,3.4756097561,-57,1.4634146341,-12,0.7317073171,-1,0.0043478261,-56,-0.2434782609,139,-0.6780487805
16079481,7851.5625,-2304,1.4126302882,2288,1.4028203556,-15728,9.6431637032,-4,3.1097560976,-51,0.243902439,-5,0.3048780488,-3,0.0130434783,-57,-0.247826087,140,-0.6829268293
16080121,7871.09375,-2208,1.3537706928,2368,1.4518700184,-15664,9.603923973,-4,3.1097560976,-51,0.243902439,-5,0.3048780488,-3,0.0130434783,-56,-0.2434782609,137,-0.6682926829
16080761,7890.625,-2400,1.4714898835,2384,1.461679951,-15680,9.6137339056,11,2.4390243902,-40,-0.6707317073,-7,0.4268292683,-2,0.0086956522,-53,-0.2304347826,138,-0.6731707317
16081401,7910.15625,-2384,1.461679951,2384,1.461679951,-15760,9.6627835684,11,2.4390243902,-40,-0.6707317073,-7,0.4268292683,-3,0.0130434783,-51,-0.2217391304,138,-0.6731707317
16082041,7929.6875,-2256,1.3832004905,2352,1.4420600858,-15792,9.6824034335,-35,2.8658536585,-47,2.1341463415,-11,0.6707317073,-4,0.0173913043,-54,-0.2347826087,139,-0.6780487805
16082681,7949.21875,-2272,1.3930104231,2384,1.461679951,-15824,9.7020232986,-4,2.1341463415,-35,0.243902439,0,0,-3,0.0130434783,-52,-0.2260869565,139,-0.6780487805
16083321,7968.75,-2272,1.3930104231,2416,1.4812998161,-15888,9.7412630288,-4,2.1341463415,-35,0.243902439,0,0,-1,0.0043478261,-52,-0.2260869565,138,-0.6731707317
16083961,7988.28125,-2208,1.3537706928,2368,1.4518700184,-15856,9.7216431637,7,2.3780487805,-39,-0.4268292683,-2,0.1219512195,-2,0.0086956522,-57,-0.247826087,139,-0.6780487805
16084601,8007.8125,-2352,1.4420600858,2288,1.4028203556,-15888,9.7412630288,7,2.3780487805,-39,-0.4268292683,-2,0.1219512195,-3,0.0130434783,-53,-0.2304347826,141,-0.687804878
16085241,8027.34375,-2192,1.3439607603,2192,1.3439607603,-15856,9.7216431637,-17,2.8658536585,-47,1.0365853659,-8,0.487804878,-5,0.0217391304,-54,-0.2347826087,139,-0.6780487805
16085881,8046.875,-2160,1.3243408952,2240,1.3733905579,-15760,9.6627835684,-8,3.5365853659,-58,0.487804878,-10,0.6097560976,-2,0.0086956522,-56,-0.2434782609,140,-0.6829268293
16086521,8066.40625,-2176,1.3341508277,2240,1.3733905579,-15872,9.7314530963,-8,3.5365853659,-58,0.487804878,-10,0.6097560976,-2,0.0086956522,-56,-0.2434782609,139,-0.6780487805
16087161,8085.9375,-2208,1.3537706928,2224,1.3635806254,-15904,9.7510729614,-5,3.6585365854,-60,0.3048780488,-12,0.7317073171,-2,0.0086956522,-53,-0.2304347826,139,-0.6780487805
16087801,8105.46875,-2192,1.3439607603,2224,1.3635806254,-15888,9.7412630288,0,4.1463414634,-68,0,-17,1.0365853659,-1,0.0043478261,-53,-0.2304347826,138,-0.6731707317
16088441,8125,-2304,1.4126302882,2320,1.4224402207,-15696,9.6235438381,0,4.1463414634,-68,0,-17,1.0365853659,-2,0.0086956522,-53,-0.2304347826,139,-0.6780487805
16089081,8144.53125,-2336,1.4322501533,2224,1.3635806254,-15808,9.692213366,1,3.9634146341,-65,-0.0609756098,-1,0.0609756098,-3,0.0130434783,-56,-0.2434782609,139,-0.6780487805
16089721,8164.0625,-2304,1.4126302882,2272,1.3930104231,-15856,9.7216431637,1,3.9634146341,-65,-0.0609756098,-1,0.0609756098,-1,0.0043478261,-53,-0.2304347826,139,-0.6780487805
16090361,8183.59375,-2096,1.2851011649,2368,1.4518700184,-15792,9.6824034335,-19,4.1463414634,-68,1.1585365854,-9,0.5487804878,-1,0.0043478261,-55,-0.2391304348,139,-0.6780487805
16091001,8203.125,-2144,1.3145309626,2400,1.4714898835,-15760,9.6627835684,29,3.4146341463,-56,-1.7682926829,-10,0.6097560976,-4,0.0173913043,-56,-0.2434782609,141,-0.687804878
16091641,8222.65625,-2368,1.4518700184,2400,1.4714898835,-15600,9.5646842428,29,3.4146341463,-56,-1.7682926829,-10,0.6097560976,-3,0.0130434783,-57,-0.247826087,140,-0.6829268293
16092281,8242.1875,-2304,1.4126302882,2432,1.4911097486,-15584,9.5548743102,-28,3.8414634146,-63,1.7073170732,-13,0.7926829268,-4,0.0173913043,-55,-0.2391304348,139,-0.6780487805
16092921,8261.71875,-2208,1.3537706928,2464,1.5107296137,-15648,9.5941140405,-28,3.8414634146,-63,1.7073170732,-13,0.7926829268,-3,0.0130434783,-55,-0.2391304348,140,-0.6829268293
16093561,8281.25,-2192,1.3439607603,2368,1.4518700184,-15696,9.6235438381,-8,3.1707317073,-52,0.487804878,-10,0.6097560976,-3,0.0130434783,-54,-0.2347826087,140,-0.6829268293
16094201,8300.78125,-2160,1.3243408952,2240,1.3733905579,-15648,9.5941140405,31,2.6219512195,-43,-1.8902439024,1,-0.0609756098,-3,0.0130434783,-51,-0.2217391304,139,-0.6780487805
16094841,8320.3125,-2224,1.3635806254,2320,1.4224402207,-15664,9.603923973,31,2.6219512195,-43,-1.8902439024,1,-0.0609756098,-2,0.0086956522,-56,-0.2434782609,139,-0.6780487805
16095481,8339.84375,-2288,1.4028203556,2272,1.3930104231,-15728,9.6431637032,31,2.256097561,-37,-1.8902439024,0,0,-2,0.0086956522,-55,-0.2391304348,138,-0.6731707317
16096121,8359.375,-2320,1.4224402207,2240,1.3733905579,-15808,9.692213366,31,2.256097561,-37,-1.8902439024,0,0,-3,0.0130434783,-54,-0.2347826087,138,-0.6731707317
16096761,8378.90625,-2288,1.4028203556,2288,1.4028203556,-15952,9.780502759,-4,2.987804878,-49,0.243902439,-14,0.8536585366,-3,0.0130434783,-55,-0.2391304348,140,-0.6829268293
16097401,8398.4375,-2160,1.3243408952,2272,1.3930104231,-15840,9.7118332311,-5,3.1707317073,-52,0.3048780488,-14,0.8536585366,-2,0.0086956522,-50,-0.2173913043,137,-0.6682926829
16098041,8417.96875,-2256,1.3832004905,2352,1.4420600858,-15744,9.6529736358,-5,3.1707317073,-52,0.3048780488,-14,0.8536585366,-1,0.0043478261,-57,-0.247826087,141,-0.687804878
16098681,8437.5,-2352,1.4420600858,2384,1.461679951,-15760,9.6627835684,6,2.8658536585,-47,-0.3658536585,-5,0.3048780488,-1,0.0043478261,-54,-0.2347826087,138,-0.6731707317
16099321,8457.03125,-2304,1.4126302882,2368,1.4518700184,-15792,9.6824034335,-6,3.0487804878,-50,0.3658536585,-4,0.243902439,-2,0.0086956522,-54,-0.2347826087,139,-0.6780487805
16099961,8476.5625,-2288,1.4028203556,2320,1.4224402207,-15792,9.6824034335,-6,3.0487804878,-50,0.3658536585,-4,0.243902439,-2,0.0086956522,-56,-0.2434782609,140,-0.6829268293
16100601,8496.09375,-2240,1.3733905579,2336,1.4322501533,-15744,9.6529736358,-2,2.8048780488,-46,0.1219512195,-9,0.5487804878,-5,0.0217391304,-57,-0.247826087,140,-0.6829268293
16101241,8515.625,-2256,1.3832004905,2352,1.4420600858,-15776,9.6725935009,-2,2.8048780488,-46,0.1219512195,-9,0.5487804878,-3,0.0130434783,-49,-0.2130434783,138,-0.6731707317
16101881,8535.15625,-2144,1.3145309626,2288,1.4028203556,-15808,9.692213366,4,2.987804878,-49,-0.243902439,-4,0.243902439,-2,0.0086956522,-51,-0.2217391304,138,-0.6731707317
16102521,8554.6875,-2208,1.3537706928,2304,1.4126302882,-15840,9.7118332311,-5,3.5975609756,-59,0.3048780488,-20,1.2195121951,-2,0.0086956522,-57,-0.247826087,140,-0.6829268293
16103161,8574.21875,-2288,1.4028203556,2304,1.4126302882,-15728,9.6431637032,-5,3.5975609756,-59,0.3048780488,-20,1.2195121951,-2,0.0086956522,-57,-0.247826087,140,-0.6829268293
16103801,8593.75,-2256,1.3832004905,2288,1.4028203556,-15760,9.6627835684,-7,3.5365853659,-58,0.4268292683,-13,0.7926829268,-2,0.0086956522,-53,-0.2304347826,138,-0.6731707317
16104441,8613.28125,-2304,1.4126302882,2368,1.4518700184,-15824,9.7020232986,-7,3.5365853659,-58,0.4268292683,-13,0.7926829268,-1,0.0043478261,-57,-0.247826087,139,-0.6780487805
16105081,8632.8125,-2240,1.3733905579,2368,1.4518700184,-15792,9.6824034335,-23,3.5365853659,-58,1.4024390244,-6,0.3658536585,-3,0.0130434783,-53,-0.2304347826,140,-0.6829268293
16105721,8652.34375,-2144,1.3145309626,2368,1.4518700184,-15744,9.6529736358,-14,3.7195121951,-61,0.8536585366,-8,0.487804878,-3,0.0130434783,-52,-0.2260869565,140,-0.6829268293
16106361,8671.875,-2064,1.2654812998,2400,1.4714898835,-15792,9.6824034335,-14,3.7195121951,-61,0.8536585366,-8,0.487804878,-1,0.0043478261,-57,-0.247826087,140,-0.6829268293
16107001,8691.40625,-2192,1.3439607603,2464,1.5107296137,-15728,9.6431637032,23,3.4146341463,-56,-1.4024390244,-11,0.6707317073,-1,0.0043478261,-55,-0.2391304348,140,-0.6829268293
16107641,8710.9375,-2176,1.3341508277,2400,1.4714898835,-15744,9.6529736358,-1,3.2317073171,-53,0.0609756098,-24,1.4634146341,-2,0.0086956522,-52,-0.2260869565,138,-0.6731707317
16108281,8730.46875,-2096,1.2851011649,2320,1.4224402207,-15776,9.6725935009,-1,3.2317073171,-53,0.0609756098,-24,1.4634146341,-3,0.0130434783,-51,-0.2217391304,138,-0.6731707317
16108921,8750,-2080,1.2752912324,2272,1.3930104231,-15776,9.6725935009,7,3.3536585366,-55,-0.4268292683,-16,0.9756097561,-3,0.0130434783,-51,-0.2217391304,138,-0.6731707317
16109561,8769.53125,-2176,1.3341508277,2336,1.4322501533,-15712,9.6333537707,7,3.3536585366,-55,-0.4268292683,-16,0.9756097561,-4,0.0173913043,-57,-0.247826087,138,-0.6731707317
16110201,8789.0625,-2208,1.3537706928,2320,1.4224402207,-15712,9.6333537707,-8,3.5975609756,-59,0.487804878,-19,1.1585365854,-2,0.0086956522,-54,-0.2347826087,139,-0.6780487805
16110841,8808.59375,-2144,1.3145309626,2272,1.3930104231,-15664,9.603923973,-24,3.5975609756,-59,1.4634146341,-22,1.3414634146,-1,0.0043478261,-56,-0.2434782609,142,-0.6926829268
16111481,8828.125,-2048,1.2556713673,2304,1.4126302882,-15728,9.6431637032,-24,3.5975609756,-59,1.4634146341,-22,1.3414634146,-2,0.0086956522,-55,-0.2391304348,140,-0.6829268293
16112121,8847.65625,-2144,1.3145309626,2448,1.5009196812,-15680,9.6137339056,14,3.1707317073,-52,-0.8536585366,-31,1.8902439024,-2,0.0086956522,-53,-0.2304347826,139,-0.6780487805
16112761,8867.1875,-2256,1.3832004905,2368,1.4518700184,-15760,9.6627835684,14,3.1707317073,-52,-0.8536585366,-31,1.8902439024,-1,0.0043478261,-54,-0.2347826087,139,-0.6780487805
16113401,8886.71875,-2432,1.4911097486,2320,1.4224402207,-15760,9.6627835684,11,2.6829268293,-44,-0.6707317073,-14,0.8536585366,-3,0.0130434783,-55,-0.2391304348,137,-0.6682926829
16114041,8906.25,-2288,1.4028203556,2288,1.4028203556,-15840,9.7118332311,-17,3.1707317073,-52,1.0365853659,-19,1.1585365854,-2,0.0086956522,-57,-0.247826087,140,-0.6829268293
16114681,8925.78125,-2240,1.3733905579,2384,1.461679951,-15744,9.6529736358,-17,3.1707317073,-52,1.0365853659,-19,1.1585365854,0,0,-56,-0.2434782609,139,-0.6780487805
16115321,8945.3125,-2304,1.4126302882,2432,1.4911097486,-15808,9.692213366,18,2.743902439,-45,-1.0975609756,-16,0.9756097561,-1,0.0043478261,-53,-0.2304347826,140,-0.6829268293
16115961,8964.84375,-2336,1.4322501533,2432,1.4911097486,-15824,9.7020232986,18,2.743902439,-45,-1.0975609756,-16,0.9756097561,-3,0.0130434783,-51,-0.2217391304,140,-0.6829268293
16116601,8984.375,-2288,1.4028203556,2352,1.4420600858,-15808,9.692213366,-2,3.2926829268,-54,0.1219512195,-16,0.9756097561,-1,0.0043478261,-51,-0.2217391304,141,-0.687804878
16117241,9003.90625,-2240,1.3733905579,2272,1.3930104231,-15840,9.7118332311,25,2.987804878,-49,-1.5243902439,-12,0.7317073171,-4,0.0173913043,-52,-0.2260869565,137,-0.6682926829
16117881,9023.4375,-2256,1.3832004905,2176,1.3341508277,-15744,9.6529736358,25,2.987804878,-49,-1.5243902439,-12,0.7317073171,-2,0.0086956522,-57,-0.247826087,140,-0.6829268293
16118521,9042.96875,-2384,1.461679951,2224,1.3635806254,-15744,9.6529736358,34,3.1097560976,-51,-2.0731707317,-11,0.6707317073,-2,0.0086956522,-54,-0.2347826087,139,-0.6780487805
16119161,9062.5,-2384,1.461679951,2304,1.4126302882,-15664,9.603923973,-27,3.2926829268,-54,1.6463414634,-19,1.1585365854,-3,0.0130434783,-51,-0.2217391304,139,-0.6780487805
16119801,9082.03125,-2256,1.3832004905,2320,1.4224402207,-15680,9.6137339056,-27,3.2926829268,-54,1.6463414634,-19,1.1585365854,-1,0.0043478261,-53,-0.2304347826,138,-0.6731707317
16120441,9101.5625,-2064,1.2654812998,2256,1.3832004905,-15680,9.6137339056,-10,2.9268292683,-48,0.6097560976,-18,1.0975609756,-3,0.0130434783,-50,-0.2173913043,138,-0.6731707317
16121081,9121.09375,-2112,1.2949110975,2368,1.4518700184,-15696,9.6235438381,-10,2.9268292683,-48,0.6097560976,-18,1.0975609756,-3,0.0130434783,-51,-0.2217391304,138,-0.6731707317
16121721,9140.625,-2256,1.3832004905,2384,1.461679951,-15760,9.6627835684,49,2.5,-41,-2.987804878,-12,0.7317073171,-3,0.0130434783,-52,-0.2260869565,139,-0.6780487805
16122361,9160.15625,-2384,1.461679951,2416,1.4812998161,-15648,9.5941140405,-20,3.1097560976,-51,1.2195121951,-29,1.7682926829,-1,0.0043478261,-50,-0.2173913043,138,-0.6731707317
16123001,9179.6875,-2352,1.4420600858,2288,1.4028203556,-15744,9.6529736358,-20,3.1097560976,-51,1.2195121951,-29,1.7682926829,0,0,-56,-0.2434782609,140,-0.6829268293
16123641,9199.21875,-2272,1.3930104231,2272,1.3930104231,-15760,9.6627835684,-34,3.5975609756,-59,2.0731707317,-26,1.5853658537,-3,0.0130434783,-51,-0.2217391304,138,-0.6731707317
16124281,9218.75,-2272,1.3930104231,2352,1.4420600858,-15680,9.6137339056,-34,3.5975609756,-59,2.0731707317,-26,1.5853658537,-3,0.0130434783,-52,-0.2260869565,140,-0.6829268293
16124921,9238.28125,-2288,1.4028203556,2384,1.461679951,-15696,9.6235438381,17,2.9268292683,-48,-1.0365853659,-12,0.7317073171,-3,0.0130434783,-56,-0.2434782609,140,-0.6829268293
16125561,9257.8125,-2384,1.461679951,2320,1.4224402207,-15616,9.5744941754,24,2.3780487805,-39,-1.4634146341,-12,0.7317073171,-3,0.0130434783,-52,-0.2260869565,138,-0.6731707317
16126201,9277.34375,-2336,1.4322501533,2240,1.3733905579,-15728,9.6431637032,24,2.3780487805,-39,-1.4634146341,-12,0.7317073171,-3,0.0130434783,-51,-0.2217391304,138,-0.6731707317
16126841,9296.875,-2336,1.4322501533,2240,1.3733905579,-15840,9.7118332311,-7,2.8048780488,-46,0.4268292683,-22,1.3414634146,-5,0.0217391304,-50,-0.2173913043,137,-0.6682926829
16127481,9316.40625,-2448,1.5009196812,2336,1.4322501533,-15904,9.7510729614,-22,2.9268292683,-48,1.3414634146,-12,0.7317073171,-3,0.0130434783,-54,-0.2347826087,138,-0.6731707317
16128121,9335.9375,-2336,1.4322501533,2352,1.4420600858,-15840,9.7118332311,-22,2.9268292683,-48,1.3414634146,-12,0.7317073171,-3,0.0130434783,-52,-0.2260869565,138,-0.6731707317
16128761,9355.46875,-2256,1.3832004905,2352,1.4420600858,-15824,9.7020232986,2,2.5609756098,-42,-0.1219512195,-12,0.7317073171,-1,0.0043478261,-56,-0.2434782609,138,-0.6731707317
16129401,9375,-2208,1.3537706928,2288,1.4028203556,-15920,9.7608828939,2,2.5609756098,-42,-0.1219512195,-12,0.7317073171,-2,0.0086956522,-52,-0.2260869565,139,-0.6780487805
16130041,9394.53125,-2464,1.5107296137,2208,1.3537706928,-15840,9.7118332311,44,3.1707317073,-52,-2.6829268293,-21,1.2804878049,-3,0.0130434783,-51,-0.2217391304,138,-0.6731707317
16130681,9414.0625,-2576,1.5793991416,2224,1.3635806254,-15776,9.6725935009,-5,4.0243902439,-66,0.3048780488,-25,1.5243902439,-4,0.0173913043,-51,-0.2217391304,139,-0.6780487805
16131321,9433.59375,-2464,1.5107296137,2224,1.3635806254,-15792,9.6824034335,-5,4.0243902439,-66,0.3048780488,-25,1.5243902439,-6,0.0260869565,-49,-0.2130434783,137,-0.6682926829
16131961,9453.125,-2288,1.4028203556,2272,1.3930104231,-15840,9.7118332311,-33,4.2682926829,-70,2.012195122,-9,0.5487804878,-1,0.0043478261,-56,-0.2434782609,140,-0.6829268293
16132601,9472.65625,-2176,1.3341508277,2352,1.4420600858,-15872,9.7314530963,-33,4.2682926829,-70,2.012195122,-9,0.5487804878,-2,0.0086956522,-54,-0.2347826087,138,-0.6731707317
16133241,9492.1875,-2400,1.4714898835,2368,1.4518700184,-15728,9.6431637032,45,3.1707317073,-52,-2.743902439,5,-0.3048780488,-2,0.0086956522,-54,-0.2347826087,138,-0.6731707317
16133881,9511.71875,-2704,1.6578786021,2320,1.4224402207,-15664,9.603923973,28,3.4146341463,-56,-1.7073170732,9,-0.5487804878,-1,0.0043478261,-57,-0.247826087,138,-0.6731707317
16134521,9531.25,-2624,1.6088289393,2336,1.4322501533,-15664,9.603923973,28,3.4146341463,-56,-1.7073170732,9,-0.5487804878,-1,0.0043478261,-57,-0.247826087,140,-0.6829268293
16135161,9550.78125,-2320,1.4224402207,2320,1.4224402207,-15664,9.603923973,-33,4.2073170732,-69,2.012195122,0,0,-4,0.0173913043,-51,-0.2217391304,137,-0.6682926829
16135801,9570.3125,-2160,1.3243408952,2304,1.4126302882,-15600,9.5646842428,-33,4.2073170732,-69,2.012195122,0,0,-1,0.0043478261,-55,-0.2391304348,139,-0.6780487805
16136441,9589.84375,-2288,1.4028203556,2432,1.4911097486,-15552,9.5352544451,33,3.3536585366,-55,-2.012195122,4,-0.243902439,-1,0.0043478261,-54,-0.2347826087,140,-0.6829268293
16137081,9609.375,-2464,1.5107296137,2384,1.461679951,-15552,9.5352544451,32,2.3780487805,-39,-1.9512195122,16,-0.9756097561,-2,0.0086956522,-53,-0.2304347826,137,-0.6682926829
16137721,9628.90625,-2496,1.5303494788,2336,1.4322501533,-15600,9.5646842428,32,2.3780487805,-39,-1.9512195122,16,-0.9756097561,0,0,-55,-0.2391304348,140,-0.6829268293
16138361,9648.4375,-2480,1.5205395463,2384,1.461679951,-15552,9.5352544451,-2,2.4390243902,-40,0.1219512195,19,-1.1585365854,-3,0.0130434783,-51,-0.2217391304,138,-0.6731707317
16139001,9667.96875,-2272,1.3930104231,2384,1.461679951,-15584,9.5548743102,-5,2.3170731707,-38,0.3048780488,22,-1.3414634146,-3,0.0130434783,-54,-0.2347826087,138,-0.6731707317
16139641,9687.5,-2096,1.2851011649,2384,1.461679951,-15584,9.5548743102,-5,2.3170731707,-38,0.3048780488,22,-1.3414634146,-2,0.0086956522,-57,-0.247826087,139,-0.6780487805
16140281,9707.03125,-2192,1.3439607603,2448,1.5009196812,-15648,9.5941140405,40,1.8902439024,-31,-2.4390243902,17,-1.0365853659,0,0,-57,-0.247826087,138,-0.6731707317
16140921,9726.5625,-2352,1.4420600858,2320,1.4224402207,-15696,9.6235438381,40,1.8902439024,-31,-2.4390243902,17,-1.0365853659,-4,0.0173913043,-52,-0.2260869565,135,-0.6585365854
16141561,9746.09375,-2336,1.4322501533,2256,1.3832004905,-15712,9.6333537707,-26,2.1341463415,-35,1.5853658537,2,-0.1219512195,-1,0.0043478261,-50,-0.2173913043,138,-0.6731707317
16142201,9765.625,-2256,1.3832004905,2304,1.4126302882,-15744,9.6529736358,-2,1.8902439024,-31,0.1219512195,-4,0.243902439,-2,0.0086956522,-51,-0.2217391304,140,-0.6829268293
16142841,9785.15625,-2160,1.3243408952,2304,1.4126302882,-15760,9.6627835684,-2,1.8902439024,-31,0.1219512195,-4,0.243902439,-3,0.0130434783,-55,-0.2391304348,139,-0.6780487805
16143481,9804.6875,-2256,1.3832004905,2352,1.4420600858,-15792,9.6824034335,13,1.9512195122,-32,-0.7926829268,-8,0.487804878,-3,0.0130434783,-51,-0.2217391304,138,-0.6731707317
16144121,9824.21875,-2288,1.4028203556,2320,1.4224402207,-15728,9.6431637032,13,1.9512195122,-32,-0.7926829268,-8,0.487804878,-2,0.0086956522,-54,-0.2347826087,139,-0.6780487805
16144761,9843.75,-2368,1.4518700184,2320,1.4224402207,-15760,9.6627835684,2,2.1951219512,-36,-0.1219512195,-6,0.3658536585,-1,0.0043478261,-56,-0.2434782609,140,-0.6829268293
16145401,9863.28125,-2400,1.4714898835,2304,1.4126302882,-15888,9.7412630288,-22,2.9268292683,-48,1.3414634146,-4,0.243902439,-2,0.0086956522,-52,-0.2260869565,140,-0.6829268293
16146041,9882.8125,-2272,1.3930104231,2320,1.4224402207,-15920,9.7608828939,-22,2.9268292683,-48,1.3414634146,-4,0.243902439,-2,0.0086956522,-53,-0.2304347826,139,-0.6780487805
16146681,9902.34375,-2416,1.4812998161,2336,1.4322501533,-15808,9.692213366,10,3.3536585366,-55,-0.6097560976,-8,0.487804878,-3,0.0130434783,-53,-0.2304347826,139,-0.6780487805
16147321,9921.875,-2400,1.4714898835,2224,1.3635806254,-15824,9.7020232986,-9,3.7804878049,-62,0.5487804878,-13,0.7926829268,-1,0.0043478261,-51,-0.2217391304,139,-0.6780487805
16147961,9941.40625,-2336,1.4322501533,2336,1.4322501533,-15664,9.603923973,-9,3.7804878049,-62,0.5487804878,-13,0.7926829268,0,0,-56,-0.2434782609,139,-0.6780487805
16148601,9960.9375,-2368,1.4518700184,2352,1.4420600858,-15696,9.6235438381,-2,3.1097560976,-51,0.1219512195,-4,0.243902439,-1,0.0043478261,-52,-0.2260869565,138,-0.6731707317
16149241,9980.46875,-2288,1.4028203556,2304,1.4126302882,-15664,9.603923973,-2,3.1097560976,-51,0.1219512195,-4,0.243902439,0,0,-54,-0.2347826087,139,-0.6780487805
16149881,10000,-2272,1.3930104231,2192,1.3439607603,-15648,9.5941140405,25,2.5609756098,-42,-1.5243902439,0,0,-2,0.0086956522,-53,-0.2304347826,137,-0.6682926829
16150521,10019.53125,-2416,1.4812998161,2224,1.3635806254,-15584,9.5548743102,19,2.4390243902,-40,-1.1585365854,-11,0.6707317073,-1,0.0043478261,-57,-0.247826087,139,-0.6780487805
16151161,10039.0625,-2496,1.5303494788,2224,1.3635806254,-15696,9.6235438381,19,2.4390243902,-40,-1.1585365854,-11,0.6707317073,-1,0.0043478261,-55,-0.2391304348,137,-0.6682926829
16151801,10058.59375,-2400,1.4714898835,2192,1.3439607603,-15664,9.603923973,-23,2.8658536585,-47,1.4024390244,-17,1.0365853659,-2,0.0086956522,-53,-0.2304347826,137,-0.6682926829
16152441,10078.125,-2352,1.4420600858,2224,1.3635806254,-15760,9.6627835684,-23,2.8658536585,-47,1.4024390244,-17,1.0365853659,-2,0.0086956522,-55,-0.2391304348,139,-0.6780487805
16153081,10097.65625,-2304,1.4126302882,2224,1.3635806254,-15760,9.6627835684,5,2.4390243902,-40,-0.3048780488,-4,0.243902439,-1,0.0043478261,-52,-0.2260869565,139,-0.6780487805
16153721,10117.1875,-2416,1.4812998161,2224,1.3635806254,-15776,9.6725935009,2,2.256097561,-37,-0.1219512195,0,0,-4,0.0173913043,-52,-0.2260869565,136,-0.6634146341
16154361,10136.71875,-2400,1.4714898835,2256,1.3832004905,-15712,9.6333537707,2,2.256097561,-37,-0.1219512195,0,0,-4,0.0173913043,-53,-0.2304347826,140,-0.6829268293
16155001,10156.25,-2464,1.5107296137,2320,1.4224402207,-15648,9.5941140405,-3,2.1341463415,-35,0.1829268293,-7,0.4268292683,-3,0.0130434783,-52,-0.2260869565,139,-0.6780487805
16155641,10175.78125,-2352,1.4420600858,2256,1.3832004905,-15840,9.7118332311,-3,2.1341463415,-35,0.1829268293,-7,0.4268292683,-2,0.0086956522,-53,-0.2304347826,139,-0.6780487805
16156281,10195.3125,-2240,1.3733905579,2160,1.3243408952,-15824,9.7020232986,-20,2.3780487805,-39,1.2195121951,-2,0.1219512195,-2,0.0086956522,-53,-0.2304347826,138,-0.6731707317
16156921,10214.84375,-2320,1.4224402207,2144,1.3145309626,-15760,9.6627835684,27,2.1951219512,-36,-1.6463414634,5,-0.3048780488,0,0,-56,-0.2434782609,140,-0.6829268293
16157561,10234.375,-2464,1.5107296137,2160,1.3243408952,-15808,9.692213366,27,2.1951219512,-36,-1.6463414634,5,-0.3048780488,-2,0.0086956522,-55,-0.2391304348,138,-0.6731707317
16158201,10253.90625,-2448,1.5009196812,2240,1.3733905579,-15808,9.692213366,-23,2.743902439,-45,1.4024390244,-13,0.7926829268,-2,0.0086956522,-52,-0.2260869565,138,-0.6731707317
16158841,10273.4375,-2352,1.4420600858,2208,1.3537706928,-15856,9.7216431637,-10,3.2317073171,-53,0.6097560976,-14,0.8536585366,-2,0.0086956522,-54,-0.2347826087,138,-0.6731707317
16159481,10292.96875,-2336,1.4322501533,2256,1.3832004905,-15744,9.6529736358,-10,3.2317073171,-53,0.6097560976,-14,0.8536585366,-1,0.0043478261,-53,-0.2304347826,140,-0.6829268293
16160121,10312.5,-2368,1.4518700184,2272,1.3930104231,-15776,9.6725935009,28,3.1707317073,-52,-1.7073170732,-1,0.0609756098,0,0,-53,-0.2304347826,138,-0.6731707317
16160761,10332.03125,-2544,1.5597792765,2256,1.3832004905,-15680,9.6137339056,28,3.1707317073,-52,-1.7073170732,-1,0.0609756098,-2,0.0086956522,-51,-0.2217391304,138,-0.6731707317
16161401,10351.5625,-2608,1.5990190067,2368,1.4518700184,-15696,9.6235438381,-13,2.987804878,-49,0.7926829268,2,-0.1219512195,-2,0.0086956522,-55,-0.2391304348,140,-0.6829268293
16162041,10371.09375,-2320,1.4224402207,2256,1.3832004905,-15728,9.6431637032,-14,2.8048780488,-46,0.8536585366,11,-0.6707317073,-5,0.0217391304,-57,-0.247826087,140,-0.6829268293
16162681,10390.625,-2272,1.3930104231,2320,1.4224402207,-15696,9.6235438381,-14,2.8048780488,-46,0.8536585366,11,-0.6707317073,0,0,-55,-0.2391304348,139,-0.6780487805
16163321,10410.15625,-2336,1.4322501533,2256,1.3832004905,-15776,9.6725935009,33,2.4390243902,-40,-2.012195122,11,-0.6707317073,-3,0.0130434783,-55,-0.2391304348,138,-0.6731707317
16163961,10429.6875,-2384,1.461679951,2096,1.2851011649,-15664,9.603923973,33,2.4390243902,-40,-2.012195122,11,-0.6707317073,-4,0.0173913043,-53,-0.2304347826,137,-0.6682926829
16164601,10449.21875,-2368,1.4518700184,2112,1.2949110975,-15632,9.5843041079,-8,3.1097560976,-51,0.487804878,-1,0.0609756098,-1,0.0043478261,-51,-0.2217391304,137,-0.6682926829
16165241,10468.75,-2256,1.3832004905,2224,1.3635806254,-15696,9.6235438381,-11,3.1097560976,-51,0.6707317073,-5,0.3048780488,-1,0.0043478261,-52,-0.2260869565,138,-0.6731707317
16165881,10488.28125,-2224,1.3635806254,2192,1.3439607603,-15696,9.6235438381,-11,3.1097560976,-51,0.6707317073,-5,0.3048780488,-4,0.0173913043,-55,-0.2391304348,138,-0.6731707317
16166521,10507.8125,-2240,1.3733905579,2224,1.3635806254,-15776,9.6725935009,8,2.5,-41,-0.487804878,5,-0.3048780488,-1,0.0043478261,-52,-0.2260869565,139,-0.6780487805
16167161,10527.34375,-2336,1.4322501533,2160,1.3243408952,-15776,9.6725935009,-3,2.3780487805,-39,0.1829268293,2,-0.1219512195,-2,0.0086956522,-53,-0.2304347826,140,-0.6829268293
16167801,10546.875,-2416,1.4812998161,2224,1.3635806254,-15808,9.692213366,-3,2.3780487805,-39,0.1829268293,2,-0.1219512195,-4,0.0173913043,-48,-0.2086956522,138,-0.6731707317
16168441,10566.40625,-2320,1.4224402207,2240,1.3733905579,-15808,9.692213366,-13,2.743902439,-45,0.7926829268,-2,0.1219512195,-2,0.0086956522,-56,-0.2434782609,141,-0.687804878
16169081,10585.9375,-2272,1.3930104231,2192,1.3439607603,-15840,9.7118332311,-13,2.743902439,-45,0.7926829268,-2,0.1219512195,-2,0.0086956522,-53,-0.2304347826,140,-0.6829268293
16169721,10605.46875,-2256,1.3832004905,2192,1.3439607603,-15840,9.7118332311,-18,2.987804878,-49,1.0975609756,-5,0.3048780488,-2,0.0086956522,-52,-0.2260869565,139,-0.6780487805
16170361,10625,-2224,1.3635806254,2240,1.3733905579,-15824,9.7020232986,2,3.4146341463,-56,-0.1219512195,-10,0.6097560976,-2,0.0086956522,-49,-0.2130434783,137,-0.6682926829
16171001,10644.53125,-2240,1.3733905579,2208,1.3537706928,-15760,9.6627835684,2,3.4146341463,-56,-0.1219512195,-10,0.6097560976,-1,0.0043478261,-51,-0.2217391304,137,-0.6682926829
16171641,10664.0625,-2304,1.4126302882,2096,1.2851011649,-15808,9.692213366,-8,3.2926829268,-54,0.487804878,-12,0.7317073171,-1,0.0043478261,-53,-0.2304347826,138,-0.6731707317
16172281,10683.59375,-2256,1.3832004905,2208,1.3537706928,-15856,9.7216431637,-8,3.2926829268,-54,0.487804878,-12,0.7317073171,-4,0.0173913043,-52,-0.2260869565,138,-0.6731707317
16172921,10703.125,-2256,1.3832004905,2160,1.3243408952,-15792,9.6824034335,-4,3.2926829268,-54,0.243902439,-9,0.5487804878,-3,0.0130434783,-55,-0.2391304348,139,-0.6780487805
16173561,10722.65625,-2352,1.4420600858,2208,1.3537706928,-15776,9.6725935009,-2,3.2926829268,-54,0.1219512195,-11,0.6707317073,-1,0.0043478261,-56,-0.2434782609,141,-0.687804878
16174201,10742.1875,-2384,1.461679951,2224,1.3635806254,-15760,9.6627835684,-2,3.2926829268,-54,0.1219512195,-11,0.6707317073,-4,0.0173913043,-49,-0.2130434783,137,-0.6682926829
16174841,10761.71875,-2320,1.4224402207,2208,1.3537706928,-15776,9.6725935009,-28,3.7804878049,-62,1.7073170732,-13,0.7926829268,-1,0.0043478261,-55,-0.2391304348,139,-0.6780487805
16175481,10781.25,-2208,1.3537706928,2224,1.3635806254,-15792,9.6824034335,-28,3.7804878049,-62,1.7073170732,-13,0.7926829268,-3,0.0130434783,-56,-0.2434782609,140,-0.6829268293
16176121,10800.78125,-2336,1.4322501533,2192,1.3439607603,-15824,9.7020232986,14,3.3536585366,-55,-0.8536585366,-4,0.243902439,-2,0.0086956522,-53,-0.2304347826,139,-0.6780487805
16176761,10820.3125,-2432,1.4911097486,2208,1.3537706928,-15744,9.6529736358,1,3.1707317073,-52,-0.0609756098,8,-0.487804878,0,0,-56,-0.2434782609,139,-0.6780487805
16177401,10839.84375,-2352,1.4420600858,2240,1.3733905579,-15840,9.7118332311,1,3.1707317073,-52,-0.0609756098,8,-0.487804878,-3,0.0130434783,-53,-0.2304347826,139,-0.6780487805
16178041,10859.375,-2192,1.3439607603,2224,1.3635806254,-15760,9.6627835684,-8,3.4756097561,-57,0.487804878,-3,0.1829268293,-3,0.0130434783,-53,-0.2304347826,138,-0.6731707317
16178681,10878.90625,-2304,1.4126302882,2240,1.3733905579,-15808,9.692213366,13,3.2926829268,-54,-0.7926829268,-5,0.3048780488,-3,0.0130434783,-52,-0.2260869565,138,-0.6731707317
16179321,10898.4375,-2368,1.4518700184,2192,1.3439607603,-15808,9.692213366,13,3.2926829268,-54,-0.7926829268,-5,0.3048780488,-3,0.0130434783,-50,-0.2173913043,139,-0.6780487805
16179961,10917.96875,-2384,1.461679951,2160,1.3243408952,-15840,9.7118332311,6,3.4146341463,-56,-0.3658536585,-3,0.1829268293,-3,0.0130434783,-53,-0.2304347826,140,-0.6829268293
16180601,10937.5,-2464,1.5107296137,2208,1.3537706928,-15648,9.5941140405,6,3.4146341463,-56,-0.3658536585,-3,0.1829268293,-2,0.0086956522,-52,-0.2260869565,139,-0.6780487805
16181241,10957.03125,-2400,1.4714898835,2288,1.4028203556,-15776,9.6725935009,-11,3.4146341463,-56,0.6707317073,7,-0.4268292683,-2,0.0086956522,-52,-0.2260869565,138,-0.6731707317
16181881,10976.5625,-2240,1.3733905579,2336,1.4322501533,-15744,9.6529736358,-6,3.1097560976,-51,0.3658536585,8,-0.487804878,0,0,-57,-0.247826087,140,-0.6829268293
16182521,10996.09375,-2272,1.3930104231,2240,1.3733905579,-15776,9.6725935009,-6,3.1097560976,-51,0.3658536585,8,-0.487804878,-2,0.0086956522,-54,-0.2347826087,138,-0.6731707317
16183161,11015.625,-2320,1.4224402207,2304,1.4126302882,-15712,9.6333537707,9,3.3536585366,-55,-0.5487804878,4,-0.243902439,-4,0.0173913043,-51,-0.2217391304,137,-0.6682926829
16183801,11035.15625,-2368,1.4518700184,2288,1.4028203556,-15648,9.5941140405,9,3.3536585366,-55,-0.5487804878,4,-0.243902439,-2,0.0086956522,-56,-0.2434782609,140,-0.6829268293
16184441,11054.6875,-2256,1.3832004905,2304,1.4126302882,-15744,9.6529736358,-4,3.8414634146,-63,0.243902439,-6,0.3658536585,-2,0.0086956522,-56,-0.2434782609,138,-0.6731707317
16185081,11074.21875,-2240,1.3733905579,2208,1.3537706928,-15856,9.7216431637,2,3.2926829268,-54,-0.1219512195,-6,0.3658536585,-1,0.0043478261,-54,-0.2347826087,139,-0.6780487805
16185721,11093.75,-2320,1.4224402207,2208,1.3537706928,-15696,9.6235438381,2,3.2926829268,-54,-0.1219512195,-6,0.3658536585,-1,0.0043478261,-54,-0.2347826087,138,-0.6731707317
16186361,11113.28125,-2304,1.4126302882,2144,1.3145309626,-15696,9.6235438381,12,2.9268292683,-48,-0.7317073171,5,-0.3048780488,-3,0.0130434783,-51,-0.2217391304,137,-0.6682926829
16187001,11132.8125,-2416,1.4812998161,2320,1.4224402207,-15712,9.6333537707,9,2.5,-41,-0.5487804878,6,-0.3658536585,-4,0.0173913043,-51,-0.2217391304,137,-0.6682926829
16187641,11152.34375,-2416,1.4812998161,2240,1.3733905579,-15696,9.6235438381,9,2.5,-41,-0.5487804878,6,-0.3658536585,-3,0.0130434783,-56,-0.2434782609,138,-0.6731707317
16188281,11171.875,-2240,1.3733905579,2272,1.3930104231,-15824,9.7020232986,-17,2.987804878,-49,1.0365853659,0,0,0,0,-57,-0.247826087,139,-0.6780487805
16188921,11191.40625,-2176,1.3341508277,2288,1.4028203556,-15792,9.6824034335,-17,2.987804878,-49,1.0365853659,0,0,-2,0.0086956522,-54,-0.2347826087,139,-0.6780487805
16189561,11210.9375,-2288,1.4028203556,2320,1.4224402207,-15840,9.7118332311,29,3.0487804878,-50,-1.7682926829,-3,0.1829268293,-3,0.0130434783,-50,-0.2173913043,138,-0.6731707317
16190201,11230.46875,-2448,1.5009196812,2272,1.3930104231,-15792,9.6824034335,-6,3.7804878049,-62,0.3658536585,-12,0.7317073171,-3,0.0130434783,-49,-0.2130434783,137,-0.6682926829
16190841,11250,-2416,1.4812998161,2256,1.3832004905,-15696,9.6235438381,-6,3.7804878049,-62,0.3658536585,-12,0.7317073171,-4,0.0173913043,-48,-0.2086956522,137,-0.6682926829
16191481,11269.53125,-2256,1.3832004905,2240,1.3733905579,-15760,9.6627835684,-29,3.8414634146,-63,1.7682926829,-9,0.5487804878,-3,0.0130434783,-53,-0.2304347826,140,-0.6829268293
16192121,11289.0625,-2208,1.3537706928,2288,1.4028203556,-15840,9.7118332311,-29,3.8414634146,-63,1.7682926829,-9,0.5487804878,-2,0.0086956522,-53,-0.2304347826,139,-0.6780487805
16192761,11308.59375,-2368,1.4518700184,2176,1.3341508277,-15744,9.6529736358,23,3.1097560976,-51,-1.4024390244,6,-0.3658536585,-4,0.0173913043,-53,-0.2304347826,139,-0.6780487805
16193401,11328.125,-2304,1.4126302882,2192,1.3439607603,-15744,9.6529736358,-10,3.4756097561,-57,0.6097560976,-6,0.3658536585,-3,0.0130434783,-50,-0.2173913043,138,-0.6731707317
16194041,11347.65625,-2288,1.4028203556,2208,1.3537706928,-15792,9.6824034335,-10,3.4756097561,-57,0.6097560976,-6,0.3658536585,0,0,-55,-0.2391304348,137,-0.6682926829
16194681,11367.1875,-2336,1.4322501533,2288,1.4028203556,-15760,9.6627835684,7,3.5365853659,-58,-0.4268292683,-1,0.0609756098,-1,0.0043478261,-53,-0.2304347826,138,-0.6731707317
16195321,11386.71875,-2400,1.4714898835,2272,1.3930104231,-15712,9.6333537707,7,3.5365853659,-58,-0.4268292683,-1,0.0609756098,0,0,-56,-0.2434782609,140,-0.6829268293
16195961,11406.25,-2320,1.4224402207,2272,1.3930104231,-15696,9.6235438381,-12,3.9024390244,-64,0.7317073171,-16,0.9756097561,-2,0.0086956522,-56,-0.2434782609,139,-0.6780487805
16196601,11425.78125,-2368,1.4518700184,2368,1.4518700184,-15712,9.6333537707,3,3.5975609756,-59,-0.1829268293,-9,0.5487804878,-3,0.0130434783,-52,-0.2260869565,138,-0.6731707317
16197241,11445.3125,-2304,1.4126302882,2368,1.4518700184,-15712,9.6333537707,3,3.5975609756,-59,-0.1829268293,-9,0.5487804878,-1,0.0043478261,-53,-0.2304347826,138,-0.6731707317
16197881,11464.84375,-2240,1.3733905579,2352,1.4420600858,-15712,9.6333537707,-4,3.5975609756,-59,0.243902439,-10,0.6097560976,-4,0.0173913043,-56,-0.2434782609,138,-0.6731707317
16198521,11484.375,-2416,1.4812998161,2368,1.4518700184,-15760,9.6627835684,20,3.3536585366,-55,-1.2195121951,-6,0.3658536585,-4,0.0173913043,-55,-0.2391304348,139,-0.6780487805
16199161,11503.90625,-2448,1.5009196812,2256,1.3832004905,-15776,9.6725935009,20,3.3536585366,-55,-1.2195121951,-6,0.3658536585,-1,0.0043478261,-56,-0.2434782609,138,-0.6731707317
16199801,11523.4375,-2368,1.4518700184,2256,1.3832004905,-15840,9.7118332311,-6,3.9634146341,-65,0.3658536585,-7,0.4268292683,-4,0.0173913043,-50,-0.2173913043,138,-0.6731707317
16200441,11542.96875,-2432,1.4911097486,2336,1.4322501533,-15792,9.6824034335,-6,3.9634146341,-65,0.3658536585,-7,0.4268292683,0,0,-56,-0.2434782609,138,-0.6731707317
16201081,11562.5,-2368,1.4518700184,2304,1.4126302882,-15856,9.7216431637,1,3.5975609756,-59,-0.0609756098,1,-0.0609756098,-2,0.0086956522,-54,-0.2347826087,140,-0.6829268293
16201721,11582.03125,-2368,1.4518700184,2288,1.4028203556,-15760,9.6627835684,13,3.5975609756,-59,-0.7926829268,9,-0.5487804878,-2,0.0086956522,-58,-0.252173913,139,-0.6780487805
16202361,11601.5625,-2336,1.4322501533,2320,1.4224402207,-15712,9.6333537707,13,3.5975609756,-59,-0.7926829268,9,-0.5487804878,-1,0.0043478261,-57,-0.247826087,140,-0.6829268293
16203001,11621.09375,-2432,1.4911097486,2336,1.4322501533,-15728,9.6431637032,12,3.7195121951,-61,-0.7317073171,11,-0.6707317073,-1,0.0043478261,-54,-0.2347826087,139,-0.6780487805
16203641,11640.625,-2400,1.4714898835,2352,1.4420600858,-15760,9.6627835684,12,3.7195121951,-61,-0.7317073171,11,-0.6707317073,-3,0.0130434783,-53,-0.2304347826,139,-0.6780487805
16204281,11660.15625,-2256,1.3832004905,2352,1.4420600858,-15760,9.6627835684,-18,3.9634146341,-65,1.0975609756,10,-0.6097560976,-3,0.0130434783,-50,-0.2173913043,136,-0.6634146341
16204921,11679.6875,-2352,1.4420600858,2368,1.4518700184,-15696,9.6235438381,16,3.9634146341,-65,-0.9756097561,17,-1.0365853659,-1,0.0043478261,-57,-0.247826087,139,-0.6780487805
16205561,11699.21875,-2416,1.4812998161,2480,1.5205395463,-15648,9.5941140405,16,3.9634146341,-65,-0.9756097561,17,-1.0365853659,-1,0.0043478261,-55,-0.2391304348,138,-0.6731707317
16206201,11718.75,-2336,1.4322501533,2368,1.4518700184,-15680,9.6137339056,-4,3.9024390244,-64,0.243902439,11,-0.6707317073,-1,0.0043478261,-54,-0.2347826087,138,-0.6731707317
16206841,11738.28125,-2224,1.3635806254,2352,1.4420600858,-15664,9.603923973,5,3.5365853659,-58,-0.3048780488,4,-0.243902439,-3,0.0130434783,-51,-0.2217391304,136,-0.6634146341
16207481,11757.8125,-2240,1.3733905579,2352,1.4420600858,-15616,9.5744941754,5,3.5365853659,-58,-0.3048780488,4,-0.243902439,-3,0.0130434783,-52,-0.2260869565,138,-0.6731707317
16208121,11777.34375,-2256,1.3832004905,2304,1.4126302882,-15584,9.5548743102,8,3.1097560976,-51,-0.487804878,14,-0.8536585366,-2,0.0086956522,-55,-0.2391304348,137,-0.6682926829
16208761,11796.875,-2256,1.3832004905,2352,1.4420600858,-15600,9.5646842428,8,3.1097560976,-51,-0.487804878,14,-0.8536585366,-5,0.0217391304,-51,-0.2217391304,137,-0.6682926829
16209401,11816.40625,-2208,1.3537706928,2304,1.4126302882,-15648,9.5941140405,-1,2.6829268293,-44,0.0609756098,10,-0.6097560976,-3,0.0130434783,-56,-0.2434782609,137,-0.6682926829
16210041,11835.9375,-2128,1.30472103,2352,1.4420600858,-15760,9.6627835684,16,2.4390243902,-40,-0.9756097561,-2,0.1219512195,-1,0.0043478261,-57,-0.247826087,139,-0.6780487805
16210681,11855.46875,-2208,1.3537706928,2384,1.461679951,-15776,9.6725935009,16,2.4390243902,-40,-0.9756097561,-2,0.1219512195,-1,0.0043478261,-58,-0.252173913,137,-0.6682926829
16211321,11875,-2384,1.461679951,2368,1.4518700184,-15744,9.6529736358,-1,3.1707317073,-52,0.0609756098,-10,0.6097560976,-3,0.0130434783,-56,-0.2434782609,138,-0.6731707317
16211961,11894.53125,-2400,1.4714898835,2416,1.4812998161,-15760,9.6627835684,-1,3.1707317073,-52,0.0609756098,-10,0.6097560976,-2,0.0086956522,-52,-0.2260869565,139,-0.6780487805
16212601,11914.0625,-2240,1.3733905579,2432,1.4911097486,-15760,9.6627835684,-31,3.7195121951,-61,1.8902439024,-14,0.8536585366,-1,0.0043478261,-58,-0.252173913,139,-0.6780487805
16213241,11933.59375,-2208,1.3537706928,2416,1.4812998161,-15744,9.6529736358,19,2.9268292683,-48,-1.1585365854,-10,0.6097560976,-1,0.0043478261,-58,-0.252173913,139,-0.6780487805
16213881,11953.125,-2400,1.4714898835,2448,1.5009196812,-15712,9.6333537707,19,2.9268292683,-48,-1.1585365854,-10,0.6097560976,-3,0.0130434783,-52,-0.2260869565,138,-0.6731707317
16214521,11972.65625,-2432,1.4911097486,2352,1.4420600858,-15680,9.6137339056,-22,2.8048780488,-46,1.3414634146,-3,0.1829268293,-3,0.0130434783,-56,-0.2434782609,139,-0.6780487805
16215161,11992.1875,-2320,1.4224402207,2384,1.461679951,-15728,9.6431637032,-13,2.8048780488,-46,0.7926829268,-6,0.3658536585,-1,0.0043478261,-57,-0.247826087,140,-0.6829268293
16215801,12011.71875,-2128,1.30472103,2464,1.5107296137,-15664,9.603923973,-13,2.8048780488,-46,0.7926829268,-6,0.3658536585,-1,0.0043478261,-51,-0.2217391304,136,-0.6634146341
16216441,12031.25,-2208,1.3537706928,2416,1.4812998161,-15696,9.6235438381,32,2.3170731707,-38,-1.9512195122,-4,0.243902439,-1,0.0043478261,-54,-0.2347826087,138,-0.6731707317
16217081,12050.78125,-2464,1.5107296137,2400,1.4714898835,-15728,9.6431637032,32,2.3170731707,-38,-1.9512195122,-4,0.243902439,-3,0.0130434783,-52,-0.2260869565,138,-0.6731707317
16217721,12070.3125,-2448,1.5009196812,2432,1.4911097486,-15728,9.6431637032,-30,2.987804878,-49,1.8292682927,-16,0.9756097561,-3,0.0130434783,-51,-0.2217391304,137,-0.6682926829
16218361,12089.84375,-2192,1.3439607603,2336,1.4322501533,-15632,9.5843041079,-20,2.5,-41,1.2195121951,-15,0.9146341463,-4,0.0173913043,-56,-0.2434782609,140,-0.6829268293
16219001,12109.375,-2192,1.3439607603,2336,1.4322501533,-15680,9.6137339056,-20,2.5,-41,1.2195121951,-15,0.9146341463,-1,0.0043478261,-54,-0.2347826087,139,-0.6780487805
16219641,12128.90625,-2224,1.3635806254,2352,1.4420600858,-15648,9.5941140405,16,2.1951219512,-36,-0.9756097561,-15,0.9146341463,-5,0.0217391304,-51,-0.2217391304,137,-0.6682926829
16220281,12148.4375,-2272,1.3930104231,2464,1.5107296137,-15744,9.6529736358,16,2.1951219512,-36,-0.9756097561,-15,0.9146341463,-2,0.0086956522,-58,-0.252173913,140,-0.6829268293
16220921,12167.96875,-2368,1.4518700184,2352,1.4420600858,-15648,9.5941140405,-5,2.1341463415,-35,0.3048780488,-20,1.2195121951,-1,0.0043478261,-57,-0.247826087,140,-0.6829268293
16221561,12187.5,-2432,1.4911097486,2336,1.4322501533,-15712,9.6333537707,-37,2.5609756098,-42,2.256097561,-23,1.4024390244,-1,0.0043478261,-57,-0.247826087,139,-0.6780487805
16222201,12207.03125,-2288,1.4028203556,2288,1.4028203556,-15696,9.6235438381,-37,2.5609756098,-42,2.256097561,-23,1.4024390244,-3,0.0130434783,-52,-0.2260869565,137,-0.6682926829
16222841,12226.5625,-2208,1.3537706928,2288,1.4028203556,-15888,9.7412630288,-15,2.6829268293,-44,0.9146341463,-13,0.7926829268,-3,0.0130434783,-52,-0.2260869565,139,-0.6780487805
16223481,12246.09375,-2288,1.4028203556,2336,1.4322501533,-15888,9.7412630288,-15,2.6829268293,-44,0.9146341463,-13,0.7926829268,-4,0.0173913043,-52,-0.2260869565,138,-0.6731707317
16224121,12265.625,-2432,1.4911097486,2304,1.4126302882,-15872,9.7314530963,12,2.1951219512,-36,-0.7317073171,1,-0.0609756098,-3,0.0130434783,-50,-0.2173913043,137,-0.6682926829
16224761,12285.15625,-2464,1.5107296137,2224,1.3635806254,-15904,9.7510729614,-30,3.2926829268,-54,1.8292682927,-15,0.9146341463,-3,0.0130434783,-52,-0.2260869565,138,-0.6731707317
16225401,12304.6875,-2288,1.4028203556,2208,1.3537706928,-15904,9.7510729614,-30,3.2926829268,-54,1.8292682927,-15,0.9146341463,-3,0.0130434783,-54,-0.2347826087,140,-0.6829268293
16226041,12324.21875,-2288,1.4028203556,2224,1.3635806254,-15808,9.692213366,0,3.5365853659,-58,0,-17,1.0365853659,-2,0.0086956522,-54,-0.2347826087,138,-0.6731707317
16226681,12343.75,-2384,1.461679951,2304,1.4126302882,-15680,9.6137339056,-24,3.5975609756,-59,1.4634146341,-14,0.8536585366,-1,0.0043478261,-56,-0.2434782609,139,-0.6780487805
16227321,12363.28125,-2384,1.461679951,2352,1.4420600858,-15616,9.5744941754,-24,3.5975609756,-59,1.4634146341,-14,0.8536585366,0,0,-57,-0.247826087,140,-0.6829268293
16227961,12382.8125,-2176,1.3341508277,2288,1.4028203556,-15600,9.5646842428,-22,2.743902439,-45,1.3414634146,7,-0.4268292683,-1,0.0043478261,-54,-0.2347826087,138,-0.6731707317
16228601,12402.34375,-2288,1.4028203556,2240,1.3733905579,-15472,9.4862047823,-22,2.743902439,-45,1.3414634146,7,-0.4268292683,-3,0.0130434783,-52,-0.2260869565,139,-0.6780487805
16229241,12421.875,-2256,1.3832004905,2160,1.3243408952,-15536,9.5254445126,11,1.4024390244,-23,-0.6707317073,37,-2.256097561,-4,0.0173913043,-52,-0.2260869565,137,-0.6682926829
16229881,12441.40625,-2144,1.3145309626,2256,1.3832004905,-15584,9.5548743102,15,1.3414634146,-22,-0.9146341463,13,-0.7926829268,-3,0.0130434783,-53,-0.2304347826,137,-0.6682926829
16230521,12460.9375,-2032,1.2458614347,2304,1.4126302882,-15712,9.6333537707,15,1.3414634146,-22,-0.9146341463,13,-0.7926829268,-1,0.0043478261,-56,-0.2434782609,138,-0.6731707317
16231161,12480.46875,-2176,1.3341508277,2256,1.3832004905,-15680,9.6137339056,25,1.8902439024,-31,-1.5243902439,-16,0.9756097561,-1,0.0043478261,-55,-0.2391304348,138,-0.6731707317
16231801,12500,-2336,1.4322501533,2256,1.3832004905,-15872,9.7314530963,25,1.8902439024,-31,-1.5243902439,-16,0.9756097561,-3,0.0130434783,-54,-0.2347826087,138,-0.6731707317
16232441,12519.53125,-2224,1.3635806254,2240,1.3733905579,-15872,9.7314530963,-34,3.0487804878,-50,2.0731707317,-33,2.012195122,-3,0.0130434783,-53,-0.2304347826,139,-0.6780487805
16233081,12539.0625,-2064,1.2654812998,2320,1.4224402207,-16016,9.8197424893,-23,2.6829268293,-44,1.4024390244,-15,0.9146341463,-2,0.0086956522,-56,-0.2434782609,138,-0.6731707317
16233721,12558.59375,-2096,1.2851011649,2336,1.4322501533,-16016,9.8197424893,-23,2.6829268293,-44,1.4024390244,-15,0.9146341463,0,0,-57,-0.247826087,139,-0.6780487805
16234361,12578.125,-2256,1.3832004905,2320,1.4224402207,-15904,9.7510729614,22,2.6219512195,-43,-1.3414634146,0,0,-3,0.0130434783,-52,-0.2260869565,140,-0.6829268293
16235001,12597.65625,-2336,1.4322501533,2240,1.3733905579,-15952,9.780502759,-5,3.3536585366,-55,0.3048780488,-7,0.4268292683,-2,0.0086956522,-54,-0.2347826087,139,-0.6780487805
16235641,12617.1875,-2288,1.4028203556,2256,1.3832004905,-15920,9.7608828939,-5,3.3536585366,-55,0.3048780488,-7,0.4268292683,-2,0.0086956522,-57,-0.247826087,140,-0.6829268293
16236281,12636.71875,-2176,1.3341508277,2256,1.3832004905,-15744,9.6529736358,-34,4.0853658537,-67,2.0731707317,-21,1.2804878049,-2,0.0086956522,-58,-0.252173913,140,-0.6829268293
16236921,12656.25,-2128,1.30472103,2240,1.3733905579,-15712,9.6333537707,-34,4.0853658537,-67,2.0731707317,-21,1.2804878049,-3,0.0130434783,-55,-0.2391304348,138,-0.6731707317
16237561,12675.78125,-2112,1.2949110975,2240,1.3733905579,-15696,9.6235438381,-16,4.2073170732,-69,0.9756097561,-28,1.7073170732,-1,0.0043478261,-53,-0.2304347826,138,-0.6731707317
16238201,12695.3125,-2144,1.3145309626,2208,1.3537706928,-15488,9.4960147149,0,3.7195121951,-61,0,-26,1.5853658537,-2,0.0086956522,-57,-0.247826087,140,-0.6829268293
16238841,12714.84375,-2208,1.3537706928,2304,1.4126302882,-15552,9.5352544451,0,3.7195121951,-61,0,-26,1.5853658537,-4,0.0173913043,-55,-0.2391304348,141,-0.687804878
16239481,12734.375,-2192,1.3439607603,2352,1.4420600858,-15504,9.5058246475,-15,2.8658536585,-47,0.9146341463,-39,2.3780487805,-2,0.0086956522,-54,-0.2347826087,139,-0.6780487805
16240121,12753.90625,-2032,1.2458614347,2336,1.4322501533,-15520,9.51563458,-15,2.8658536585,-47,0.9146341463,-39,2.3780487805,-1,0.0043478261,-54,-0.2347826087,139,-0.6780487805
16240761,12773.4375,-2160,1.3243408952,2288,1.4028203556,-15632,9.5843041079,15,2.0731707317,-34,-0.9146341463,-35,2.1341463415,-3,0.0130434783,-56,-0.2434782609,140,-0.6829268293
16241401,12792.96875,-2288,1.4028203556,2240,1.3733905579,-15632,9.5843041079,3,1.5853658537,-26,-0.1829268293,-32,1.9512195122,-3,0.0130434783,-54,-0.2347826087,138,-0.6731707317
16242041,12812.5,-2288,1.4028203556,2224,1.3635806254,-15728,9.6431637032,3,1.5853658537,-26,-0.1829268293,-32,1.9512195122,-1,0.0043478261,-56,-0.2434782609,139,-0.6780487805
16242681,12832.03125,-2256,1.3832004905,2272,1.3930104231,-15824,9.7020232986,-32,2.256097561,-37,1.9512195122,-34,2.0731707317,-3,0.0130434783,-54,-0.2347826087,138,-0.6731707317
16243321,12851.5625,-2112,1.2949110975,2112,1.2949110975,-15856,9.7216431637,-32,2.256097561,-37,1.9512195122,-34,2.0731707317,-2,0.0086956522,-52,-0.2260869565,139,-0.6780487805
16243961,12871.09375,-2336,1.4322501533,2128,1.30472103,-15760,9.6627835684,12,1.9512195122,-32,-0.7317073171,-23,1.4024390244,-4,0.0173913043,-52,-0.2260869565,139,-0.6780487805
16244601,12890.625,-2400,1.4714898835,2144,1.3145309626,-15888,9.7412630288,-6,1.9512195122,-32,0.3658536585,-18,1.0975609756,-4,0.0173913043,-51,-0.2217391304,138,-0.6731707317
16245241,12910.15625,-2320,1.4224402207,2192,1.3439607603,-15920,9.7608828939,-6,1.9512195122,-32,0.3658536585,-18,1.0975609756,-2,0.0086956522,-51,-0.2217391304,138,-0.6731707317
16245881,12929.6875,-2176,1.3341508277,2224,1.3635806254,-15904,9.7510729614,-27,2.4390243902,-40,1.6463414634,-19,1.1585365854,-2,0.0086956522,-53,-0.2304347826,140,-0.6829268293
16246521,12949.21875,-2272,1.3930104231,2192,1.3439607603,-15920,9.7608828939,-2,3.3536585366,-55,0.1219512195,-15,0.9146341463,-1,0.0043478261,-52,-0.2260869565,141,-0.687804878
16247161,12968.75,-2384,1.461679951,2208,1.3537706928,-15904,9.7510729614,-2,3.3536585366,-55,0.1219512195,-15,0.9146341463,-2,0.0086956522,-56,-0.2434782609,140,-0.6829268293
16247801,12988.28125,-2368,1.4518700184,2256,1.3832004905,-15776,9.6725935009,-12,4.2073170732,-69,0.7317073171,-6,0.3658536585,-4,0.0173913043,-52,-0.2260869565,138,-0.6731707317
16248441,13007.8125,-2320,1.4224402207,2224,1.3635806254,-15792,9.6824034335,-12,4.2073170732,-69,0.7317073171,-6,0.3658536585,-4,0.0173913043,-50,-0.2173913043,138,-0.6731707317
16249081,13027.34375,-2320,1.4224402207,2224,1.3635806254,-15744,9.6529736358,1,3.6585365854,-60,-0.0609756098,-4,0.243902439,-3,0.0130434783,-50,-0.2173913043,137,-0.6682926829
16249721,13046.875,-2368,1.4518700184,2208,1.3537706928,-15712,9.6333537707,-1,3.3536585366,-55,0.0609756098,4,-0.243902439,-2,0.0086956522,-50,-0.2173913043,138,-0.6731707317
16250361,13066.40625,-2448,1.5009196812,2176,1.3341508277,-15600,9.5646842428,-1,3.3536585366,-55,0.0609756098,4,-0.243902439,-3,0.0130434783,-48,-0.2086956522,138,-0.6731707317
16251001,13085.9375,-2384,1.461679951,2208,1.3537706928,-15744,9.6529736358,-16,2.9268292683,-48,0.9756097561,14,-0.8536585366,-1,0.0043478261,-52,-0.2260869565,139,-0.6780487805
16251641,13105.46875,-2320,1.4224402207,2240,1.3733905579,-15840,9.7118332311,-16,2.9268292683,-48,0.9756097561,14,-0.8536585366,-2,0.0086956522,-56,-0.2434782609,140,-0.6829268293
16252281,13125,-2128,1.30472103,2208,1.3537706928,-15776,9.6725935009,-14,2.8048780488,-46,0.8536585366,23,-1.4024390244,-3,0.0130434783,-55,-0.2391304348,139,-0.6780487805
16252921,13144.53125,-2144,1.3145309626,2208,1.3537706928,-15792,9.6824034335,30,2.8048780488,-46,-1.8292682927,31,-1.8902439024,-1,0.0043478261,-55,-0.2391304348,139,-0.6780487805
16253561,13164.0625,-2176,1.3341508277,2240,1.3733905579,-15760,9.6627835684,30,2.8048780488,-46,-1.8292682927,31,-1.8902439024,-4,0.0173913043,-50,-0.2173913043,139,-0.6780487805
16254201,13183.59375,-2112,1.2949110975,2160,1.3243408952,-15712,9.6333537707,-5,3.2317073171,-53,0.3048780488,10,-0.6097560976,-4,0.0173913043,-56,-0.2434782609,139,-0.6780487805
16254841,13203.125,-2016,1.2360515021,2208,1.3537706928,-15696,9.6235438381,-4,3.6585365854,-60,0.243902439,-2,0.1219512195,-2,0.0086956522,-51,-0.2217391304,138,-0.6731707317
16255481,13222.65625,-2000,1.2262415696,2224,1.3635806254,-15744,9.6529736358,-4,3.6585365854,-60,0.243902439,-2,0.1219512195,-2,0.0086956522,-51,-0.2217391304,138,-0.6731707317
16256121,13242.1875,-1984,1.216431637,2224,1.3635806254,-15696,9.6235438381,-12,3.4146341463,-56,0.7317073171,-6,0.3658536585,-4,0.0173913043,-54,-0.2347826087,139,-0.6780487805
16256761,13261.71875,-1888,1.1575720417,2176,1.3341508277,-15600,9.5646842428,-12,3.4146341463,-56,0.7317073171,-6,0.3658536585,-3,0.0130434783,-53,-0.2304347826,140,-0.6829268293
16257401,13281.25,-1808,1.1085223789,2224,1.3635806254,-15776,9.6725935009,11,2.743902439,-45,-0.6707317073,-12,0.7317073171,-3,0.0130434783,-53,-0.2304347826,139,-0.6780487805
16258041,13300.78125,-2160,1.3243408952,2272,1.3930104231,-15744,9.6529736358,42,2.1951219512,-36,-2.5609756098,-15,0.9146341463,-1,0.0043478261,-55,-0.2391304348,140,-0.6829268293
16258681,13320.3125,-2368,1.4518700184,2256,1.3832004905,-15664,9.603923973,42,2.1951219512,-36,-2.5609756098,-15,0.9146341463,-2,0.0086956522,-54,-0.2347826087,139,-0.6780487805
16259321,13339.84375,-2304,1.4126302882,2224,1.3635806254,-15680,9.6137339056,-43,2.743902439,-45,2.6219512195,-32,1.9512195122,-3,0.0130434783,-54,-0.2347826087,140,-0.6829268293
16259961,13359.375,-2176,1.3341508277,2224,1.3635806254,-15680,9.6137339056,-43,2.743902439,-45,2.6219512195,-32,1.9512195122,-2,0.0086956522,-54,-0.2347826087,138,-0.6731707317
16260601,13378.90625,-2112,1.2949110975,2288,1.4028203556,-15792,9.6824034335,-32,2.4390243902,-40,1.9512195122,-30,1.8292682927,-2,0.0086956522,-56,-0.2434782609,141,-0.687804878
16261241,13398.4375,-2320,1.4224402207,2272,1.3930104231,-15792,9.6824034335,34,1.7682926829,-29,-2.0731707317,3,-0.1829268293,-2,0.0086956522,-54,-0.2347826087,138,-0.6731707317
16261881,13417.96875,-2448,1.5009196812,2304,1.4126302882,-15872,9.7314530963,34,1.7682926829,-29,-2.0731707317,3,-0.1829268293,-4,0.0173913043,-51,-0.2217391304,138,-0.6731707317
16262521,13437.5,-2416,1.4812998161,2272,1.3930104231,-15920,9.7608828939,16,2.4390243902,-40,-0.9756097561,-3,0.1829268293,-1,0.0043478261,-53,-0.2304347826,138,-0.6731707317
16263161,13457.03125,-2352,1.4420600858,2224,1.3635806254,-15904,9.7510729614,16,2.4390243902,-40,-0.9756097561,-3,0.1829268293,-3,0.0130434783,-51,-0.2217391304,137,-0.6682926829
16263801,13476.5625,-2368,1.4518700184,2224,1.3635806254,-15888,9.7412630288,-1,2.987804878,-49,0.0609756098,-13,0.7926829268,-4,0.0173913043,-53,-0.2304347826,138,-0.6731707317
16264441,13496.09375,-2272,1.3930104231,2160,1.3243408952,-15840,9.7118332311,5,3.1707317073,-52,-0.3048780488,-8,0.487804878,-5,0.0217391304,-50,-0.2173913043,138,-0.6731707317
16265081,13515.625,-2336,1.4322501533,2160,1.3243408952,-15776,9.6725935009,5,3.1707317073,-52,-0.3048780488,-8,0.487804878,-5,0.0217391304,-49,-0.2130434783,138,-0.6731707317
16265721,13535.15625,-2416,1.4812998161,2208,1.3537706928,-15792,9.6824034335,19,2.8048780488,-46,-1.1585365854,10,-0.6097560976,-2,0.0086956522,-51,-0.2217391304,138,-0.6731707317
16266361,13554.6875,-2240,1.3733905579,2256,1.3832004905,-15808,9.692213366,7,3.4756097561,-57,-0.4268292683,9,-0.5487804878,-3,0.0130434783,-51,-0.2217391304,138,-0.6731707317
16267001,13574.21875,-2208,1.3537706928,2272,1.3930104231,-15696,9.6235438381,7,3.4756097561,-57,-0.4268292683,9,-0.5487804878,-1,0.0043478261,-56,-0.2434782609,139,-0.6780487805
16267641,13593.75,-2240,1.3733905579,2256,1.3832004905,-15712,9.6333537707,23,2.9268292683,-48,-1.4024390244,15,-0.9146341463,-5,0.0217391304,-54,-0.2347826087,138,-0.6731707317
16268281,13613.28125,-2240,1.3733905579,2208,1.3537706928,-15760,9.6627835684,23,2.9268292683,-48,-1.4024390244,15,-0.9146341463,-3,0.0130434783,-51,-0.2217391304,139,-0.6780487805
16268921,13632.8125,-2192,1.3439607603,2176,1.3341508277,-15792,9.6824034335,17,3.2926829268,-54,-1.0365853659,9,-0.5487804878,-3,0.0130434783,-52,-0.2260869565,138,-0.6731707317
16269561,13652.34375,-2224,1.3635806254,2144,1.3145309626,-15808,9.692213366,33,2.743902439,-45,-2.012195122,-5,0.3048780488,-4,0.0173913043,-50,-0.2173913043,137,-0.6682926829
16270201,13671.875,-2352,1.4420600858,2160,1.3243408952,-15712,9.6333537707,33,2.743902439,-45,-2.012195122,-5,0.3048780488,-1,0.0043478261,-55,-0.2391304348,140,-0.6829268293
16270841,13691.40625,-2448,1.5009196812,2032,1.2458614347,-15632,9.5843041079,2,3.2317073171,-53,-0.1219512195,-22,1.3414634146,-3,0.0130434783,-51,-0.2217391304,138,-0.6731707317
16271481,13710.9375,-2288,1.4028203556,2112,1.2949110975,-15760,9.6627835684,2,3.2317073171,-53,-0.1219512195,-22,1.3414634146,-2,0.0086956522,-53,-0.2304347826,139,-0.6780487805
16272121,13730.46875,-2240,1.3733905579,2240,1.3733905579,-15760,9.6627835684,16,3.2926829268,-54,-0.9756097561,-8,0.487804878,-3,0.0130434783,-50,-0.2173913043,137,-0.6682926829
16272761,13750,-2384,1.461679951,2256,1.3832004905,-15792,9.6824034335,57,2.4390243902,-40,-3.4756097561,20,-1.2195121951,-3,0.0130434783,-51,-0.2217391304,137,-0.6682926829
16273401,13769.53125,-2416,1.4812998161,2256,1.3832004905,-15616,9.5744941754,57,2.4390243902,-40,-3.4756097561,20,-1.2195121951,0,0,-53,-0.2304347826,139,-0.6780487805
16274041,13789.0625,-2272,1.3930104231,2336,1.4322501533,-15760,9.6627835684,0,3.1097560976,-51,0,-4,0.243902439,-1,0.0043478261,-54,-0.2347826087,139,-0.6780487805
16274681,13808.59375,-2224,1.3635806254,2272,1.3930104231,-15792,9.6824034335,19,2.8048780488,-46,-1.1585365854,10,-0.6097560976,-3,0.0130434783,-52,-0.2260869565,138,-0.6731707317
16275321,13828.125,-2256,1.3832004905,2192,1.3439607603,-15712,9.6333537707,19,2.8048780488,-46,-1.1585365854,10,-0.6097560976,-3,0.0130434783,-53,-0.2304347826,138,-0.6731707317
16275961,13847.65625,-2288,1.4028203556,2208,1.3537706928,-15632,9.5843041079,-23,3.5365853659,-58,1.4024390244,2,-0.1219512195,-4,0.0173913043,-50,-0.2173913043,137,-0.6682926829
16276601,13867.1875,-2144,1.3145309626,2192,1.3439607603,-15616,9.5744941754,-23,3.5365853659,-58,1.4024390244,2,-0.1219512195,-4,0.0173913043,-51,-0.2217391304,139,-0.6780487805
16277241,13886.71875,-2032,1.2458614347,2272,1.3930104231,-15680,9.6137339056,-5,3.1707317073,-52,0.3048780488,-13,0.7926829268,-3,0.0130434783,-49,-0.2130434783,138,-0.6731707317
16277881,13906.25,-2096,1.2851011649,2240,1.3733905579,-15696,9.6235438381,16,2.8658536585,-47,-0.9756097561,-17,1.0365853659,-3,0.0130434783,-52,-0.2260869565,139,-0.6780487805
16278521,13925.78125,-2208,1.3537706928,2224,1.3635806254,-15696,9.6235438381,16,2.8658536585,-47,-0.9756097561,-17,1.0365853659,-4,0.0173913043,-48,-0.2086956522,137,-0.6682926829
16279161,13945.3125,-2208,1.3537706928,2272,1.3930104231,-15680,9.6137339056,11,2.987804878,-49,-0.6707317073,-37,2.256097561,-3,0.0130434783,-53,-0.2304347826,139,-0.6780487805
16279801,13964.84375,-2304,1.4126302882,2208,1.3537706928,-15616,9.5744941754,11,2.987804878,-49,-0.6707317073,-37,2.256097561,-3,0.0130434783,-52,-0.2260869565,138,-0.6731707317
16280441,13984.375,-2336,1.4322501533,2224,1.3635806254,-15648,9.5941140405,-14,2.8048780488,-46,0.8536585366,-44,2.6829268293,-3,0.0130434783,-56,-0.2434782609,139,-0.6780487805
16281081,14003.90625,-2320,1.4224402207,2272,1.3930104231,-15632,9.5843041079,-20,2.1951219512,-36,1.2195121951,-32,1.9512195122,-2,0.0086956522,-53,-0.2304347826,138,-0.6731707317
16281721,14023.4375,-2368,1.4518700184,2224,1.3635806254,-15744,9.6529736358,-20,2.1951219512,-36,1.2195121951,-32,1.9512195122,-3,0.0130434783,-51,-0.2217391304,138,-0.6731707317
16282361,14042.96875,-2352,1.4420600858,2176,1.3341508277,-15712,9.6333537707,7,1.4634146341,-24,-0.4268292683,-11,0.6707317073,-1,0.0043478261,-52,-0.2260869565,138,-0.6731707317
16283001,14062.5,-2288,1.4028203556,2208,1.3537706928,-15808,9.692213366,7,1.4634146341,-24,-0.4268292683,-11,0.6707317073,-2,0.0086956522,-54,-0.2347826087,138,-0.6731707317
16283641,14082.03125,-2400,1.4714898835,2272,1.3930104231,-15776,9.6725935009,21,1.5853658537,-26,-1.2804878049,-11,0.6707317073,-3,0.0130434783,-50,-0.2173913043,136,-0.6634146341
16284281,14101.5625,-2512,1.5401594114,2208,1.3537706928,-15840,9.7118332311,-11,2.012195122,-33,0.6707317073,-11,0.6707317073,-4,0.0173913043,-51,-0.2217391304,139,-0.6780487805
16284921,14121.09375,-2400,1.4714898835,2080,1.2752912324,-15920,9.7608828939,-11,2.012195122,-33,0.6707317073,-11,0.6707317073,-6,0.0260869565,-49,-0.2130434783,138,-0.6731707317
16285561,14140.625,-2160,1.3243408952,2048,1.2556713673,-15920,9.7608828939,-3,2.6829268293,-44,0.1829268293,-7,0.4268292683,-3,0.0130434783,-53,-0.2304347826,138,-0.6731707317
16286201,14160.15625,-2224,1.3635806254,2160,1.3243408952,-15920,9.7608828939,38,2.8658536585,-47,-2.3170731707,-3,0.1829268293,-4,0.0173913043,-54,-0.2347826087,136,-0.6634146341
16286841,14179.6875,-2448,1.5009196812,2240,1.3733905579,-15856,9.7216431637,38,2.8658536585,-47,-2.3170731707,-3,0.1829268293,-1,0.0043478261,-57,-0.247826087,139,-0.6780487805
16287481,14199.21875,-2464,1.5107296137,2192,1.3439607603,-15840,9.7118332311,-35,3.3536585366,-55,2.1341463415,-11,0.6707317073,-2,0.0086956522,-51,-0.2217391304,139,-0.6780487805
16288121,14218.75,-2176,1.3341508277,2144,1.3145309626,-15856,9.7216431637,-35,3.3536585366,-55,2.1341463415,-11,0.6707317073,-3,0.0130434783,-51,-0.2217391304,138,-0.6731707317
16288761,14238.28125,-2176,1.3341508277,2048,1.2556713673,-15872,9.7314530963,23,3.0487804878,-50,-1.4024390244,0,0,-4,0.0173913043,-51,-0.2217391304,138,-0.6731707317
16289401,14257.8125,-2400,1.4714898835,2048,1.2556713673,-15776,9.6725935009,14,3.0487804878,-50,-0.8536585366,7,-0.4268292683,-4,0.0173913043,-52,-0.2260869565,139,-0.6780487805
16290041,14277.34375,-2384,1.461679951,2096,1.2851011649,-15712,9.6333537707,14,3.0487804878,-50,-0.8536585366,7,-0.4268292683,-4,0.0173913043,-49,-0.2130434783,137,-0.6682926829
16290681,14296.875,-2320,1.4224402207,2144,1.3145309626,-15632,9.5843041079,-3,3.3536585366,-55,0.1829268293,-6,0.3658536585,-4,0.0173913043,-53,-0.2304347826,138,-0.6731707317
16291321,14316.40625,-2256,1.3832004905,2176,1.3341508277,-15680,9.6137339056,-3,3.3536585366,-55,0.1829268293,-6,0.3658536585,-5,0.0217391304,-53,-0.2304347826,137,-0.6682926829
16291961,14335.9375,-2272,1.3930104231,2144,1.3145309626,-15760,9.6627835684,14,2.3170731707,-38,-0.8536585366,-6,0.3658536585,-2,0.0086956522,-50,-0.2173913043,137,-0.6682926829
16292601,14355.46875,-2320,1.4224402207,2128,1.30472103,-15792,9.6824034335,28,2.4390243902,-40,-1.7073170732,-1,0.0609756098,-1,0.0043478261,-54,-0.2347826087,137,-0.6682926829
16293241,14375,-2416,1.4812998161,2144,1.3145309626,-15856,9.7216431637,28,2.4390243902,-40,-1.7073170732,-1,0.0609756098,-1,0.0043478261,-52,-0.2260869565,138,-0.6731707317
16293881,14394.53125,-2448,1.5009196812,2064,1.2654812998,-15808,9.692213366,-27,3.1707317073,-52,1.6463414634,-2,0.1219512195,-3,0.0130434783,-52,-0.2260869565,138,-0.6731707317
16294521,14414.0625,-2368,1.4518700184,2096,1.2851011649,-15808,9.692213366,-21,3.3536585366,-55,1.2804878049,-1,0.0609756098,-2,0.0086956522,-52,-0.2260869565,137,-0.6682926829
16295161,14433.59375,-2208,1.3537706928,2128,1.30472103,-15744,9.6529736358,-21,3.3536585366,-55,1.2804878049,-1,0.0609756098,-2,0.0086956522,-52,-0.2260869565,137,-0.6682926829
16295801,14453.125,-2176,1.3341508277,2000,1.2262415696,-15744,9.6529736358,4,3.2926829268,-54,-0.243902439,0,0,-5,0.0217391304,-49,-0.2130434783,138,-0.6731707317
16296441,14472.65625,-2240,1.3733905579,2080,1.2752912324,-15712,9.6333537707,4,3.2926829268,-54,-0.243902439,0,0,-4,0.0173913043,-51,-0.2217391304,137,-0.6682926829
16297081,14492.1875,-2464,1.5107296137,2112,1.2949110975,-15696,9.6235438381,51,3.1707317073,-52,-3.1097560976,-4,0.243902439,-2,0.0086956522,-53,-0.2304347826,137,-0.6682926829
16297721,14511.71875,-2656,1.6284488044,2080,1.2752912324,-15648,9.5941140405,-47,4.0243902439,-66,2.8658536585,-19,1.1585365854,-1,0.0043478261,-50,-0.2173913043,138,-0.6731707317
16298361,14531.25,-2448,1.5009196812,2096,1.2851011649,-15568,9.5450643777,-47,4.0243902439,-66,2.8658536585,-19,1.1585365854,-3,0.0130434783,-50,-0.2173913043,137,-0.6682926829
16299001,14550.78125,-2192,1.3439607603,2176,1.3341508277,-15664,9.603923973,-35,3.7195121951,-61,2.1341463415,-16,0.9756097561,-4,0.0173913043,-48,-0.2086956522,137,-0.6682926829
16299641,14570.3125,-2112,1.2949110975,2224,1.3635806254,-15712,9.6333537707,-35,3.7195121951,-61,2.1341463415,-16,0.9756097561,-3,0.0130434783,-50,-0.2173913043,139,-0.6780487805
16300281,14589.84375,-2272,1.3930104231,2160,1.3243408952,-15632,9.5843041079,49,2.5609756098,-42,-2.987804878,0,0,-4,0.0173913043,-52,-0.2260869565,139,-0.6780487805
16300921,14609.375,-2400,1.4714898835,2160,1.3243408952,-15680,9.6137339056,12,2.9268292683,-48,-0.7317073171,-5,0.3048780488,-3,0.0130434783,-48,-0.2086956522,137,-0.6682926829
16301561,14628.90625,-2464,1.5107296137,2192,1.3439607603,-15744,9.6529736358,12,2.9268292683,-48,-0.7317073171,-5,0.3048780488,-1,0.0043478261,-52,-0.2260869565,139,-0.6780487805
16302201,14648.4375,-2400,1.4714898835,2240,1.3733905579,-15728,9.6431637032,-26,2.9268292683,-48,1.5853658537,-11,0.6707317073,-4,0.0173913043,-50,-0.2173913043,138,-0.6731707317
16302841,14667.96875,-2336,1.4322501533,2160,1.3243408952,-15808,9.692213366,-26,2.9268292683,-48,1.5853658537,-11,0.6707317073,-2,0.0086956522,-55,-0.2391304348,138,-0.6731707317
16303481,14687.5,-2192,1.3439607603,2112,1.2949110975,-15792,9.6824034335,-35,3.0487804878,-50,2.1341463415,-16,0.9756097561,-2,0.0086956522,-49,-0.2130434783,136,-0.6634146341
16304121,14707.03125,-2160,1.3243408952,2144,1.3145309626,-15824,9.7020232986,30,2.5609756098,-42,-1.8292682927,-8,0.487804878,-4,0.0173913043,-53,-0.2304347826,139,-0.6780487805
16304761,14726.5625,-2336,1.4322501533,2144,1.3145309626,-15808,9.692213366,30,2.5609756098,-42,-1.8292682927,-8,0.487804878,-2,0.0086956522,-52,-0.2260869565,138,-0.6731707317
16305401,14746.09375,-2560,1.5695892091,2112,1.2949110975,-15760,9.6627835684,14,3.1097560976,-51,-0.8536585366,-3,0.1829268293,-1,0.0043478261,-53,-0.2304347826,139,-0.6780487805
16306041,14765.625,-2496,1.5303494788,2208,1.3537706928,-15696,9.6235438381,-34,3.5365853659,-58,2.0731707317,-9,0.5487804878,-2,0.0086956522,-54,-0.2347826087,139,-0.6780487805
16306681,14785.15625,-2288,1.4028203556,2336,1.4322501533,-15824,9.7020232986,-34,3.5365853659,-58,2.0731707317,-9,0.5487804878,-2,0.0086956522,-57,-0.247826087,139,-0.6780487805
16307321,14804.6875,-2176,1.3341508277,2240,1.3733905579,-15872,9.7314530963,12,3.0487804878,-50,-0.7317073171,-6,0.3658536585,-3,0.0130434783,-51,-0.2217391304,137,-0.6682926829
16307961,14824.21875,-2304,1.4126302882,2064,1.2654812998,-15712,9.6333537707,12,3.0487804878,-50,-0.7317073171,-6,0.3658536585,-1,0.0043478261,-51,-0.2217391304,136,-0.6634146341
16308601,14843.75,-2320,1.4224402207,2048,1.2556713673,-15744,9.6529736358,28,3.2317073171,-53,-1.7073170732,-12,0.7317073171,-5,0.0217391304,-50,-0.2173913043,138,-0.6731707317
16309241,14863.28125,-2256,1.3832004905,2064,1.2654812998,-15824,9.7020232986,19,3.3536585366,-55,-1.1585365854,-24,1.4634146341,-3,0.0130434783,-52,-0.2260869565,139,-0.6780487805
16309881,14882.8125,-2352,1.4420600858,2128,1.30472103,-15648,9.5941140405,19,3.3536585366,-55,-1.1585365854,-24,1.4634146341,-1,0.0043478261,-52,-0.2260869565,136,-0.6634146341
16310521,14902.34375,-2384,1.461679951,2096,1.2851011649,-15616,9.5744941754,6,2.9268292683,-48,-0.3658536585,-14,0.8536585366,-2,0.0086956522,-51,-0.2217391304,137,-0.6682926829
16311161,14921.875,-2352,1.4420600858,2176,1.3341508277,-15680,9.6137339056,6,2.9268292683,-48,-0.3658536585,-14,0.8536585366,-4,0.0173913043,-51,-0.2217391304,138,-0.6731707317
16311801,14941.40625,-2224,1.3635806254,2240,1.3733905579,-15728,9.6431637032,-12,2.8048780488,-46,0.7317073171,-8,0.487804878,-3,0.0130434783,-47,-0.2043478261,137,-0.6682926829
16312441,14960.9375,-2272,1.3930104231,2192,1.3439607603,-15744,9.6529736358,35,2.5,-41,-2.1341463415,-4,0.243902439,-3,0.0130434783,-53,-0.2304347826,139,-0.6780487805
16313081,14980.46875,-2416,1.4812998161,2256,1.3832004905,-15808,9.692213366,35,2.5,-41,-2.1341463415,-4,0.243902439,-2,0.0086956522,-51,-0.2217391304,139,-0.6780487805
16313721,15000,-2432,1.4911097486,2240,1.3733905579,-15728,9.6431637032,-4,3.4146341463,-56,0.243902439,-26,1.5853658537,-3,0.0130434783,-51,-0.2217391304,138,-0.6731707317
16314361,15019.53125,-2448,1.5009196812,2208,1.3537706928,-15824,9.7020232986,-23,3.5975609756,-59,1.4024390244,-26,1.5853658537,-2,0.0086956522,-48,-0.2086956522,138,-0.6731707317
16315001,15039.0625,-2336,1.4322501533,2112,1.2949110975,-15888,9.7412630288,-23,3.5975609756,-59,1.4024390244,-26,1.5853658537,-4,0.0173913043,-56,-0.2434782609,139,-0.6780487805
16315641,15058.59375,-2160,1.3243408952,2144,1.3145309626,-15904,9.7510729614,-3,4.0243902439,-66,0.1829268293,-22,1.3414634146,-3,0.0130434783,-56,-0.2434782609,138,-0.6731707317
16316281,15078.125,-2160,1.3243408952,2144,1.3145309626,-15824,9.7020232986,-3,4.0243902439,-66,0.1829268293,-22,1.3414634146,-4,0.0173913043,-49,-0.2130434783,138,-0.6731707317
16316921,15097.65625,-2256,1.3832004905,2112,1.2949110975,-15776,9.6725935009,40,3.8414634146,-63,-2.4390243902,-21,1.2804878049,-1,0.0043478261,-49,-0.2130434783,137,-0.6682926829
16317561,15117.1875,-2384,1.461679951,2064,1.2654812998,-15712,9.6333537707,-19,4.3902439024,-72,1.1585365854,-42,2.5609756098,-1,0.0043478261,-51,-0.2217391304,139,-0.6780487805
16318201,15136.71875,-2400,1.4714898835,2256,1.3832004905,-15728,9.6431637032,-19,4.3902439024,-72,1.1585365854,-42,2.5609756098,-3,0.0130434783,-54,-0.2347826087,138,-0.6731707317
16318841,15156.25,-2352,1.4420600858,2352,1.4420600858,-15696,9.6235438381,-36,4.8170731707,-79,2.1951219512,-45,2.743902439,-4,0.0173913043,-50,-0.2173913043,137,-0.6682926829
16319481,15175.78125,-2432,1.4911097486,2288,1.4028203556,-15712,9.6333537707,-36,4.8170731707,-79,2.1951219512,-45,2.743902439,-2,0.0086956522,-52,-0.2260869565,139,-0.6780487805
16320121,15195.3125,-2480,1.5205395463,2192,1.3439607603,-15584,9.5548743102,-27,4.0853658537,-67,1.6463414634,-37,2.256097561,-3,0.0130434783,-51,-0.2217391304,138,-0.6731707317
16320761,15214.84375,-2272,1.3930104231,2128,1.30472103,-15696,9.6235438381,16,4.0853658537,-67,-0.9756097561,-29,1.7682926829,-3,0.0130434783,-50,-0.2173913043,139,-0.6780487805
16321401,15234.375,-2352,1.4420600858,2256,1.3832004905,-15728,9.6431637032,16,4.0853658537,-67,-0.9756097561,-29,1.7682926829,-3,0.0130434783,-48,-0.2086956522,136,-0.6634146341
16322041,15253.90625,-2752,1.6873083998,2272,1.3930104231,-15696,9.6235438381,45,3.6585365854,-60,-2.743902439,-17,1.0365853659,-3,0.0130434783,-50,-0.2173913043,138,-0.6731707317
16322681,15273.4375,-2800,1.7167381974,2192,1.3439607603,-15584,9.5548743102,45,3.6585365854,-60,-2.743902439,-17,1.0365853659,0,0,-51,-0.2217391304,138,-0.6731707317
16323321,15292.96875,-2464,1.5107296137,2192,1.3439607603,-15488,9.4960147149,-60,4.3292682927,-71,3.6585365854,-31,1.8902439024,-1,0.0043478261,-50,-0.2173913043,137,-0.6682926829
16323961,15312.5,-2192,1.3439607603,2256,1.3832004905,-15632,9.5843041079,6,2.9268292683,-48,-0.3658536585,-6,0.3658536585,-3,0.0130434783,-49,-0.2130434783,137,-0.6682926829
16324601,15332.03125,-2416,1.4812998161,2272,1.3930104231,-15744,9.6529736358,6,2.9268292683,-48,-0.3658536585,-6,0.3658536585,-1,0.0043478261,-52,-0.2260869565,138,-0.6731707317
16325241,15351.5625,-2608,1.5990190067,2256,1.3832004905,-15616,9.5744941754,48,2.5609756098,-42,-2.9268292683,11,-0.6707317073,-3,0.0130434783,-48,-0.2086956522,138,-0.6731707317
16325881,15371.09375,-2608,1.5990190067,2176,1.3341508277,-15552,9.5352544451,-40,3.3536585366,-55,2.4390243902,-8,0.487804878,-3,0.0130434783,-50,-0.2173913043,136,-0.6634146341
16326521,15390.625,-2320,1.4224402207,2208,1.3537706928,-15600,9.5646842428,-40,3.3536585366,-55,2.4390243902,-8,0.487804878,-3,0.0130434783,-50,-0.2173913043,136,-0.6634146341
16327161,15410.15625,-2192,1.3439607603,2160,1.3243408952,-15712,9.6333537707,-3,2.1951219512,-36,0.1829268293,-2,0.1219512195,-5,0.0217391304,-48,-0.2086956522,137,-0.6682926829
16327801,15429.6875,-2224,1.3635806254,2128,1.30472103,-15744,9.6529736358,-3,2.1951219512,-36,0.1829268293,-2,0.1219512195,-3,0.0130434783,-51,-0.2217391304,138,-0.6731707317
16328441,15449.21875,-2448,1.5009196812,2048,1.2556713673,-15744,9.6529736358,36,1.4634146341,-24,-2.1951219512,17,-1.0365853659,-3,0.0130434783,-50,-0.2173913043,135,-0.6585365854
16329081,15468.75,-2512,1.5401594114,2096,1.2851011649,-15776,9.6725935009,-11,2.1341463415,-35,0.6707317073,8,-0.487804878,-4,0.0173913043,-49,-0.2130434783,136,-0.6634146341
16329721,15488.28125,-2336,1.4322501533,2096,1.2851011649,-15920,9.7608828939,-11,2.1341463415,-35,0.6707317073,8,-0.487804878,0,0,-56,-0.2434782609,138,-0.6731707317
16330361,15507.8125,-2256,1.3832004905,2192,1.3439607603,-15968,9.7903126916,-30,2.9268292683,-48,1.8292682927,-10,0.6097560976,-2,0.0086956522,-52,-0.2260869565,137,-0.6682926829
16331001,15527.34375,-2208,1.3537706928,2064,1.2654812998,-15872,9.7314530963,-30,2.9268292683,-48,1.8292682927,-10,0.6097560976,-7,0.0304347826,-49,-0.2130434783,136,-0.6634146341
16331641,15546.875,-2432,1.4911097486,2176,1.3341508277,-15888,9.7412630288,6,3.4756097561,-57,-0.3658536585,-3,0.1829268293,-3,0.0130434783,-46,-0.2,136,-0.6634146341
16332281,15566.40625,-2464,1.5107296137,2256,1.3832004905,-15904,9.7510729614,-10,3.5975609756,-59,0.6097560976,-8,0.487804878,-4,0.0173913043,-52,-0.2260869565,137,-0.6682926829
16332921,15585.9375,-2320,1.4224402207,2128,1.30472103,-15840,9.7118332311,-10,3.5975609756,-59,0.6097560976,-8,0.487804878,-1,0.0043478261,-55,-0.2391304348,139,-0.6780487805
16333561,15605.46875,-2336,1.4322501533,2128,1.30472103,-15824,9.7020232986,-20,3.7195121951,-61,1.2195121951,8,-0.487804878,-3,0.0130434783,-49,-0.2130434783,135,-0.6585365854
16334201,15625,-2400,1.4714898835,2176,1.3341508277,-15856,9.7216431637,19,3.5975609756,-59,-1.1585365854,8,-0.487804878,-3,0.0130434783,-51,-0.2217391304,135,-0.6585365854
16334841,15644.53125,-2464,1.5107296137,2112,1.2949110975,-15824,9.7020232986,19,3.5975609756,-59,-1.1585365854,8,-0.487804878,-4,0.0173913043,-53,-0.2304347826,137,-0.6682926829
16335481,15664.0625,-2480,1.5205395463,2112,1.2949110975,-15680,9.6137339056,-29,4.0853658537,-67,1.7682926829,4,-0.243902439,-2,0.0086956522,-54,-0.2347826087,138,-0.6731707317
16336121,15683.59375,-2288,1.4028203556,2160,1.3243408952,-15648,9.5941140405,-29,4.0853658537,-67,1.7682926829,4,-0.243902439,-3,0.0130434783,-51,-0.2217391304,135,-0.6585365854
16336761,15703.125,-2288,1.4028203556,2240,1.3733905579,-15632,9.5843041079,-5,3.9024390244,-64,0.3048780488,8,-0.487804878,-3,0.0130434783,-52,-0.2260869565,137,-0.6682926829
16337401,15722.65625,-2416,1.4812998161,2304,1.4126302882,-15696,9.6235438381,20,3.6585365854,-60,-1.2195121951,5,-0.3048780488,-5,0.0217391304,-50,-0.2173913043,138,-0.6731707317
16338041,15742.1875,-2432,1.4911097486,2272,1.3930104231,-15616,9.5744941754,20,3.6585365854,-60,-1.2195121951,5,-0.3048780488,-5,0.0217391304,-50,-0.2173913043,138,-0.6731707317
16338681,15761.71875,-2368,1.4518700184,2224,1.3635806254,-15536,9.5254445126,-22,3.7195121951,-61,1.3414634146,0,0,-2,0.0086956522,-49,-0.2130434783,136,-0.6634146341
16339321,15781.25,-2288,1.4028203556,2304,1.4126302882,-15632,9.5843041079,-22,3.7195121951,-61,1.3414634146,0,0,-1,0.0043478261,-56,-0.2434782609,137,-0.6682926829
16339961,15800.78125,-2224,1.3635806254,2320,1.4224402207,-15648,9.5941140405,-11,3.0487804878,-50,0.6707317073,8,-0.487804878,-2,0.0086956522,-50,-0.2173913043,136,-0.6634146341
16340601,15820.3125,-2384,1.461679951,2288,1.4028203556,-15728,9.6431637032,3,1.8292682927,-30,-0.1829268293,23,-1.4024390244,-4,0.0173913043,-48,-0.2086956522,137,-0.6682926829
16341241,15839.84375,-2464,1.5107296137,2288,1.4028203556,-15728,9.6431637032,3,1.8292682927,-30,-0.1829268293,23,-1.4024390244,-5,0.0217391304,-50,-0.2173913043,137,-0.6682926829
16341881,15859.375,-2320,1.4224402207,2256,1.3832004905,-15664,9.603923973,-51,2.3780487805,-39,3.1097560976,3,-0.1829268293,-3,0.0130434783,-51,-0.2217391304,136,-0.6634146341
16342521,15878.90625,-2080,1.2752912324,2240,1.3733905579,-15776,9.6725935009,-51,2.3780487805,-39,3.1097560976,3,-0.1829268293,-3,0.0130434783,-47,-0.2043478261,137,-0.6682926829
16343161,15898.4375,-2128,1.30472103,2256,1.3832004905,-15856,9.7216431637,-30,2.3780487805,-39,1.8292682927,3,-0.1829268293,-3,0.0130434783,-49,-0.2130434783,139,-0.6780487805
16343801,15917.96875,-2256,1.3832004905,2272,1.3930104231,-15840,9.7118332311,21,2.5,-41,-1.2804878049,2,-0.1219512195,-4,0.0173913043,-57,-0.247826087,140,-0.6829268293
16344441,15937.5,-2384,1.461679951,2224,1.3635806254,-15792,9.6824034335,21,2.5,-41,-1.2804878049,2,-0.1219512195,-5,0.0217391304,-47,-0.2043478261,137,-0.6682926829
16345081,15957.03125,-2304,1.4126302882,2304,1.4126302882,-15824,9.7020232986,-23,2.987804878,-49,1.4024390244,-1,0.0609756098,-2,0.0086956522,-54,-0.2347826087,138,-0.6731707317
16345721,15976.5625,-2224,1.3635806254,2288,1.4028203556,-15776,9.6725935009,-24,3.6585365854,-60,1.4634146341,-4,0.243902439,-2,0.0086956522,-53,-0.2304347826,138,-0.6731707317
16346361,15996.09375,-2016,1.2360515021,2176,1.3341508277,-15792,9.6824034335,-24,3.6585365854,-60,1.4634146341,-4,0.243902439,-6,0.0260869565,-54,-0.2347826087,137,-0.6682926829
16347001,16015.625,-2096,1.2851011649,2160,1.3243408952,-15728,9.6431637032,42,3.0487804878,-50,-2.5609756098,-2,0.1219512195,-4,0.0173913043,-54,-0.2347826087,139,-0.6780487805
16347641,16035.15625,-2304,1.4126302882,2192,1.3439607603,-15840,9.7118332311,42,3.0487804878,-50,-2.5609756098,-2,0.1219512195,-3,0.0130434783,-47,-0.2043478261,138,-0.6731707317
16348281,16054.6875,-2320,1.4224402207,2160,1.3243408952,-15712,9.6333537707,-14,3.5365853659,-58,0.8536585366,-18,1.0975609756,-4,0.0173913043,-48,-0.2086956522,138,-0.6731707317
16348921,16074.21875,-2224,1.3635806254,2192,1.3439607603,-15760,9.6627835684,-30,3.1707317073,-52,1.8292682927,-15,0.9146341463,-4,0.0173913043,-49,-0.2130434783,136,-0.6634146341
16349561,16093.75,-2096,1.2851011649,2144,1.3145309626,-15728,9.6431637032,-30,3.1707317073,-52,1.8292682927,-15,0.9146341463,-5,0.0217391304,-50,-0.2173913043,139,-0.6780487805
16350201,16113.28125,-2176,1.3341508277,2224,1.3635806254,-15632,9.5843041079,16,3.1707317073,-52,-0.9756097561,0,0,-6,0.0260869565,-52,-0.2260869565,138,-0.6731707317
16350841,16132.8125,-2288,1.4028203556,2240,1.3733905579,-15792,9.6824034335,16,3.1707317073,-52,-0.9756097561,0,0,-6,0.0260869565,-51,-0.2217391304,138,-0.6731707317
16351481,16152.34375,-2240,1.3733905579,2384,1.461679951,-15824,9.7020232986,6,2.8658536585,-47,-0.3658536585,-17,1.0365853659,-4,0.0173913043,-49,-0.2130434783,137,-0.6682926829
16352121,16171.875,-2240,1.3733905579,2240,1.3733905579,-15664,9.603923973,-4,3.3536585366,-55,0.243902439,-12,0.7317073171,-2,0.0086956522,-52,-0.2260869565,136,-0.6634146341
16352761,16191.40625,-2288,1.4028203556,2192,1.3439607603,-15616,9.5744941754,-4,3.3536585366,-55,0.243902439,-12,0.7317073171,-5,0.0217391304,-52,-0.2260869565,137,-0.6682926829
16353401,16210.9375,-2128,1.30472103,2160,1.3243408952,-15600,9.5646842428,3,3.5365853659,-58,-0.1829268293,-18,1.0975609756,-4,0.0173913043,-47,-0.2043478261,137,-0.6682926829
16354041,16230.46875,-1904,1.1673819742,2192,1.3439607603,-15392,9.4371551196,46,2.4390243902,-40,-2.8048780488,-29,1.7682926829,-4,0.0173913043,-50,-0.2173913043,136,-0.6634146341
16354681,16250,-1984,1.216431637,2224,1.3635806254,-15280,9.3684855917,46,2.4390243902,-40,-2.8048780488,-29,1.7682926829,-5,0.0217391304,-47,-0.2043478261,137,-0.6682926829
16355321,16269.53125,-2064,1.2654812998,2304,1.4126302882,-15216,9.3292458614,62,0.487804878,-8,-3.7804878049,-46,2.8048780488,-3,0.0130434783,-52,-0.2260869565,137,-0.6682926829
16355961,16289.0625,-2176,1.3341508277,2384,1.461679951,-15376,9.427345187,62,0.487804878,-8,-3.7804878049,-46,2.8048780488,-4,0.0173913043,-50,-0.2173913043,136,-0.6634146341
16356601,16308.59375,-2224,1.3635806254,2320,1.4224402207,-15600,9.5646842428,49,-1.1585365854,19,-2.987804878,-36,2.1951219512,-4,0.0173913043,-48,-0.2086956522,137,-0.6682926829
16357241,16328.125,-2352,1.4420600858,2192,1.3439607603,-15808,9.692213366,7,-0.9146341463,15,-0.4268292683,-20,1.2195121951,-1,0.0043478261,-53,-0.2304347826,137,-0.6682926829
16357881,16347.65625,-2496,1.5303494788,2096,1.2851011649,-15984,9.8001226242,7,-0.9146341463,15,-0.4268292683,-20,1.2195121951,-3,0.0130434783,-46,-0.2,136,-0.6634146341
16358521,16367.1875,-2432,1.4911097486,2096,1.2851011649,-16208,9.93746168,-58,0.6097560976,-10,3.5365853659,-14,0.8536585366,-2,0.0086956522,-50,-0.2173913043,136,-0.6634146341
16359161,16386.71875,-2304,1.4126302882,2064,1.2654812998,-16176,9.9178418148,-58,0.6097560976,-10,3.5365853659,-14,0.8536585366,-1,0.0043478261,-52,-0.2260869565,138,-0.6731707317
16359801,16406.25,-2192,1.3439607603,2032,1.2458614347,-16160,9.9080318823,-48,1.7073170732,-28,2.9268292683,-13,0.7926829268,-4,0.0173913043,-49,-0.2130434783,138,-0.6731707317
16360441,16425.78125,-2176,1.3341508277,2064,1.2654812998,-16032,9.8295524218,11,2.743902439,-45,-0.6707317073,-22,1.3414634146,-5,0.0217391304,-49,-0.2130434783,137,-0.6682926829
16361081,16445.3125,-2240,1.3733905579,2112,1.2949110975,-15936,9.7706928265,11,2.743902439,-45,-0.6707317073,-22,1.3414634146,-5,0.0217391304,-50,-0.2173913043,137,-0.6682926829
16361721,16464.84375,-2400,1.4714898835,2048,1.2556713673,-15824,9.7020232986,6,3.9634146341,-65,-0.3658536585,-56,3.4146341463,-8,0.0347826087,-51,-0.2217391304,138,-0.6731707317
16362361,16484.375,-2528,1.549969344,2064,1.2654812998,-15696,9.6235438381,-54,4.8170731707,-79,3.2926829268,-103,6.2804878049,-4,0.0173913043,-48,-0.2086956522,139,-0.6780487805
16363001,16503.90625,-2384,1.461679951,2000,1.2262415696,-15632,9.5843041079,-54,4.8170731707,-79,3.2926829268,-103,6.2804878049,-3,0.0130434783,-48,-0.2086956522,136,-0.6634146341
16363641,16523.4375,-2208,1.3537706928,2032,1.2458614347,-15712,9.6333537707,-22,3.8414634146,-63,1.3414634146,-83,5.0609756098,-1,0.0043478261,-50,-0.2173913043,137,-0.6682926829
16364281,16542.96875,-2480,1.5205395463,2144,1.3145309626,-15552,9.5352544451,-22,3.8414634146,-63,1.3414634146,-83,5.0609756098,-3,0.0130434783,-49,-0.2130434783,136,-0.6634146341
16364921,16562.5,-2704,1.6578786021,2192,1.3439607603,-15536,9.5254445126,0,2.256097561,-37,0,-14,0.8536585366,-5,0.0217391304,-49,-0.2130434783,136,-0.6634146341
16365561,16582.03125,-2640,1.6186388719,2128,1.30472103,-15568,9.5450643777,-47,1.4634146341,-24,2.8658536585,47,-2.8658536585,-3,0.0130434783,-47,-0.2043478261,138,-0.6731707317
16366201,16601.5625,-2432,1.4911097486,2016,1.2360515021,-15616,9.5744941754,-47,1.4634146341,-24,2.8658536585,47,-2.8658536585,-5,0.0217391304,-45,-0.1956521739,138,-0.6731707317
16366841,16621.09375,-2176,1.3341508277,1968,1.2066217045,-15744,9.6529736358,-3,0.6097560976,-10,0.1829268293,45,-2.743902439,-5,0.0217391304,-45,-0.1956521739,137,-0.6682926829
16367481,16640.625,-2144,1.3145309626,2096,1.2851011649,-15792,9.6824034335,-3,0.6097560976,-10,0.1829268293,45,-2.743902439,-4,0.0173913043,-48,-0.2086956522,136,-0.6634146341
16368121,16660.15625,-2288,1.4028203556,1952,1.1968117719,-15728,9.6431637032,49,1.0365853659,-17,-2.987804878,19,-1.1585365854,-4,0.0173913043,-48,-0.2086956522,136,-0.6634146341
16368761,16679.6875,-2432,1.4911097486,2000,1.2262415696,-15712,9.6333537707,-25,2.1951219512,-36,1.5243902439,-15,0.9146341463,-3,0.0130434783,-52,-0.2260869565,139,-0.6780487805
16369401,16699.21875,-2496,1.5303494788,2064,1.2654812998,-15792,9.6824034335,-25,2.1951219512,-36,1.5243902439,-15,0.9146341463,-5,0.0217391304,-51,-0.2217391304,139,-0.6780487805
16370041,16718.75,-2368,1.4518700184,2016,1.2360515021,-15952,9.780502759,-54,2.6219512195,-43,3.2926829268,-7,0.4268292683,-4,0.0173913043,-49,-0.2130434783,137,-0.6682926829
16370681,16738.28125,-2384,1.461679951,2048,1.2556713673,-15856,9.7216431637,-54,2.6219512195,-43,3.2926829268,-7,0.4268292683,-3,0.0130434783,-49,-0.2130434783,138,-0.6731707317
16371321,16757.8125,-2688,1.6480686695,2160,1.3243408952,-15776,9.6725935009,-6,1.9512195122,-32,0.3658536585,36,-2.1951219512,-3,0.0130434783,-46,-0.2,137,-0.6682926829
16371961,16777.34375,-2752,1.6873083998,2048,1.2556713673,-15888,9.7412630288,-56,2.1341463415,-35,3.4146341463,68,-4.1463414634,-6,0.0260869565,-47,-0.2043478261,137,-0.6682926829
16372601,16796.875,-2480,1.5205395463,1888,1.1575720417,-15984,9.8001226242,-56,2.1341463415,-35,3.4146341463,68,-4.1463414634,-5,0.0217391304,-51,-0.2217391304,138,-0.6731707317
16373241,16816.40625,-2112,1.2949110975,1856,1.1379521766,-15968,9.7903126916,-54,3.1097560976,-51,3.2926829268,85,-5.1829268293,-6,0.0260869565,-50,-0.2173913043,139,-0.6780487805
16373881,16835.9375,-1888,1.1575720417,1920,1.1771919068,-15968,9.7903126916,45,3.7195121951,-61,-2.743902439,45,-2.743902439,-5,0.0217391304,-49,-0.2130434783,140,-0.6829268293
16374521,16855.46875,-2128,1.30472103,1920,1.1771919068,-15824,9.7020232986,45,3.7195121951,-61,-2.743902439,45,-2.743902439,-6,0.0260869565,-49,-0.2130434783,139,-0.6780487805
16375161,16875,-2288,1.4028203556,1920,1.1771919068,-15616,9.5744941754,-34,4.8780487805,-80,2.0731707317,-4,0.243902439,-6,0.0260869565,-49,-0.2130434783,140,-0.6829268293
16375801,16894.53125,-1968,1.2066217045,1920,1.1771919068,-15680,9.6137339056,-34,4.8780487805,-80,2.0731707317,-4,0.243902439,-3,0.0130434783,-51,-0.2217391304,138,-0.6731707317
16376441,16914.0625,-1872,1.1477621091,2032,1.2458614347,-15584,9.5548743102,-43,4.756097561,-78,2.6219512195,-18,1.0975609756,-5,0.0217391304,-52,-0.2260869565,139,-0.6780487805
16377081,16933.59375,-1776,1.0889025138,2000,1.2262415696,-15568,9.5450643777,17,3.3536585366,-55,-1.0365853659,19,-1.1585365854,-4,0.0173913043,-52,-0.2260869565,139,-0.6780487805
16377721,16953.125,-1888,1.1575720417,2048,1.2556713673,-15648,9.5941140405,17,3.3536585366,-55,-1.0365853659,19,-1.1585365854,-3,0.0130434783,-56,-0.2434782609,139,-0.6780487805
16378361,16972.65625,-1936,1.1870018394,2112,1.2949110975,-15552,9.5352544451,51,2.3780487805,-39,-3.1097560976,17,-1.0365853659,-2,0.0086956522,-55,-0.2391304348,141,-0.687804878
16379001,16992.1875,-2096,1.2851011649,2080,1.2752912324,-15520,9.51563458,51,2.3780487805,-39,-3.1097560976,17,-1.0365853659,-3,0.0130434783,-53,-0.2304347826,139,-0.6780487805
16379641,17011.71875,-2112,1.2949110975,2048,1.2556713673,-15632,9.5843041079,22,1.8292682927,-30,-1.3414634146,3,-0.1829268293,-3,0.0130434783,-53,-0.2304347826,139,-0.6780487805
16380281,17031.25,-2112,1.2949110975,2080,1.2752912324,-15728,9.6431637032,-30,2.3170731707,-38,1.8292682927,-30,1.8292682927,-3,0.0130434783,-50,-0.2173913043,138,-0.6731707317
16380921,17050.78125,-2032,1.2458614347,2048,1.2556713673,-15840,9.7118332311,-30,2.3170731707,-38,1.8292682927,-30,1.8292682927,-2,0.0086956522,-49,-0.2130434783,137,-0.6682926829
16381561,17070.3125,-2016,1.2360515021,2048,1.2556713673,-15840,9.7118332311,-22,2.987804878,-49,1.3414634146,-41,2.5,-5,0.0217391304,-50,-0.2173913043,138,-0.6731707317
16382201,17089.84375,-2016,1.2360515021,2000,1.2262415696,-15840,9.7118332311,28,2.8658536585,-47,-1.7073170732,-22,1.3414634146,-3,0.0130434783,-52,-0.2260869565,138,-0.6731707317
16382841,17109.375,-2144,1.3145309626,2016,1.2360515021,-15808,9.692213366,28,2.8658536585,-47,-1.7073170732,-22,1.3414634146,-4,0.0173913043,-54,-0.2347826087,139,-0.6780487805
16383481,17128.90625,-2320,1.4224402207,2176,1.3341508277,-15776,9.6725935009,26,2.8048780488,-46,-1.5853658537,-26,1.5853658537,-4,0.0173913043,-51,-0.2217391304,138,-0.6731707317
16384121,17148.4375,-2336,1.4322501533,2112,1.2949110975,-15776,9.6725935009,26,2.8048780488,-46,-1.5853658537,-26,1.5853658537,-4,0.0173913043,-51,-0.2217391304,139,-0.6780487805
16384761,17167.96875,-2240,1.3733905579,1984,1.216431637,-15920,9.7608828939,18,2.5,-41,-1.0975609756,2,-0.1219512195,0,0,-53,-0.2304347826,139,-0.6780487805
16385401,17187.5,-2208,1.3537706928,2032,1.2458614347,-15968,9.7903126916,53,2.0731707317,-34,-3.2317073171,17,-1.0365853659,-3,0.0130434783,-55,-0.2391304348,139,-0.6780487805
16386041,17207.03125,-2320,1.4224402207,1984,1.216431637,-15904,9.7510729614,53,2.0731707317,-34,-3.2317073171,17,-1.0365853659,-5,0.0217391304,-49,-0.2130434783,137,-0.6682926829
16386681,17226.5625,-2336,1.4322501533,1920,1.1771919068,-15920,9.7608828939,-3,3.1097560976,-51,0.1829268293,5,-0.3048780488,-5,0.0217391304,-49,-0.2130434783,138,-0.6731707317
16387321,17246.09375,-2160,1.3243408952,1904,1.1673819742,-15840,9.7118332311,-3,3.1097560976,-51,0.1829268293,5,-0.3048780488,-4,0.0173913043,-49,-0.2130434783,139,-0.6780487805
16387961,17265.625,-2048,1.2556713673,1936,1.1870018394,-15824,9.7020232986,-5,3.9634146341,-65,0.3048780488,-11,0.6707317073,-4,0.0173913043,-50,-0.2173913043,138,-0.6731707317
16388601,17285.15625,-2112,1.2949110975,1968,1.2066217045,-15840,9.7118332311,42,3.5975609756,-59,-2.5609756098,-20,1.2195121951,-4,0.0173913043,-46,-0.2,138,-0.6731707317
16389241,17304.6875,-2288,1.4028203556,1952,1.1968117719,-15872,9.7314530963,42,3.5975609756,-59,-2.5609756098,-20,1.2195121951,-5,0.0217391304,-45,-0.1956521739,136,-0.6634146341
16389881,17324.21875,-2384,1.461679951,2016,1.2360515021,-15760,9.6627835684,8,3.5975609756,-59,-0.487804878,-8,0.487804878,-6,0.0260869565,-47,-0.2043478261,138,-0.6731707317
16390521,17343.75,-2304,1.4126302882,2080,1.2752912324,-15616,9.5744941754,8,3.5975609756,-59,-0.487804878,-8,0.487804878,-5,0.0217391304,-49,-0.2130434783,137,-0.6682926829
16391161,17363.28125,-2160,1.3243408952,2016,1.2360515021,-15680,9.6137339056,-25,3.3536585366,-55,1.5243902439,-7,0.4268292683,-5,0.0217391304,-45,-0.1956521739,137,-0.6682926829
16391801,17382.8125,-2160,1.3243408952,2048,1.2556713673,-15808,9.692213366,26,3.2317073171,-53,-1.5853658537,-5,0.3048780488,-4,0.0173913043,-51,-0.2217391304,139,-0.6780487805
16392441,17402.34375,-2368,1.4518700184,2064,1.2654812998,-15760,9.6627835684,26,3.2317073171,-53,-1.5853658537,-5,0.3048780488,-7,0.0304347826,-49,-0.2130434783,136,-0.6634146341
16393081,17421.875,-2352,1.4420600858,2048,1.2556713673,-15872,9.7314530963,18,2.8048780488,-46,-1.0975609756,1,-0.0609756098,-3,0.0130434783,-47,-0.2043478261,138,-0.6731707317
16393721,17441.40625,-2336,1.4322501533,2048,1.2556713673,-15824,9.7020232986,-13,3.7804878049,-62,0.7926829268,0,0,-3,0.0130434783,-46,-0.2,137,-0.6682926829
16394361,17460.9375,-2256,1.3832004905,2016,1.2360515021,-15728,9.6431637032,-13,3.7804878049,-62,0.7926829268,0,0,-4,0.0173913043,-47,-0.2043478261,136,-0.6634146341
16395001,17480.46875,-2208,1.3537706928,2032,1.2458614347,-15728,9.6431637032,-5,3.6585365854,-60,0.3048780488,-2,0.1219512195,-6,0.0260869565,-45,-0.1956521739,138,-0.6731707317
16395641,17500,-2176,1.3341508277,2112,1.2949110975,-15728,9.6431637032,-5,3.6585365854,-60,0.3048780488,-2,0.1219512195,-5,0.0217391304,-50,-0.2173913043,137,-0.6682926829
16396281,17519.53125,-2288,1.4028203556,2128,1.30472103,-15744,9.6529736358,19,3.4756097561,-57,-1.1585365854,-4,0.243902439,-3,0.0130434783,-50,-0.2173913043,136,-0.6634146341
16396921,17539.0625,-2432,1.4911097486,2080,1.2752912324,-15680,9.6137339056,-29,3.5365853659,-58,1.7682926829,-22,1.3414634146,-5,0.0217391304,-49,-0.2130434783,137,-0.6682926829
16397561,17558.59375,-2464,1.5107296137,1984,1.216431637,-15680,9.6137339056,-29,3.5365853659,-58,1.7682926829,-22,1.3414634146,-1,0.0043478261,-56,-0.2434782609,139,-0.6780487805
16398201,17578.125,-2256,1.3832004905,2032,1.2458614347,-15632,9.5843041079,-99,3.7804878049,-62,6.0365853659,-17,1.0365853659,-2,0.0086956522,-55,-0.2391304348,139,-0.6780487805
16398841,17597.65625,-1968,1.2066217045,2128,1.30472103,-15712,9.6333537707,-99,3.7804878049,-62,6.0365853659,-17,1.0365853659,-5,0.0217391304,-49,-0.2130434783,138,-0.6731707317
16399481,17617.1875,-1840,1.128142244,2128,1.30472103,-15664,9.603923973,-24,2.8658536585,-47,1.4634146341,6,-0.3658536585,-5,0.0217391304,-48,-0.2086956522,138,-0.6731707317
16400121,17636.71875,-2080,1.2752912324,2016,1.2360515021,-15616,9.5744941754,65,1.4024390244,-23,-3.9634146341,16,-0.9756097561,-4,0.0173913043,-51,-0.2217391304,137,-0.6682926829
16400761,17656.25,-2256,1.3832004905,2016,1.2360515021,-15648,9.5941140405,65,1.4024390244,-23,-3.9634146341,16,-0.9756097561,-5,0.0217391304,-45,-0.1956521739,137,-0.6682926829
16401401,17675.78125,-2288,1.4028203556,2032,1.2458614347,-15744,9.6529736358,9,2.1341463415,-35,-0.5487804878,-10,0.6097560976,-4,0.0173913043,-47,-0.2043478261,137,-0.6682926829
16402041,17695.3125,-2288,1.4028203556,2032,1.2458614347,-15792,9.6824034335,-28,2.8048780488,-46,1.7073170732,-15,0.9146341463,-4,0.0173913043,-49,-0.2130434783,137,-0.6682926829
16402681,17714.84375,-2240,1.3733905579,2048,1.2556713673,-15760,9.6627835684,-28,2.8048780488,-46,1.7073170732,-15,0.9146341463,-5,0.0217391304,-45,-0.1956521739,137,-0.6682926829
16403321,17734.375,-2176,1.3341508277,2032,1.2458614347,-15696,9.6235438381,-9,2.6829268293,-44,0.5487804878,-16,0.9756097561,-4,0.0173913043,-49,-0.2130434783,138,-0.6731707317
16403961,17753.90625,-2208,1.3537706928,2032,1.2458614347,-15648,9.5941140405,-9,2.6829268293,-44,0.5487804878,-16,0.9756097561,-3,0.0130434783,-47,-0.2043478261,137,-0.6682926829
16404601,17773.4375,-2208,1.3537706928,1984,1.216431637,-15728,9.6431637032,44,2.3170731707,-38,-2.6829268293,2,-0.1219512195,-1,0.0043478261,-51,-0.2217391304,137,-0.6682926829
16405241,17792.96875,-2368,1.4518700184,1888,1.1575720417,-15744,9.6529736358,61,1.5853658537,-26,-3.7195121951,19,-1.1585365854,-4,0.0173913043,-53,-0.2304347826,139,-0.6780487805
16405881,17812.5,-2432,1.4911097486,1968,1.2066217045,-15680,9.6137339056,61,1.5853658537,-26,-3.7195121951,19,-1.1585365854,-5,0.0217391304,-48,-0.2086956522,138,-0.6731707317
16406521,17832.03125,-2320,1.4224402207,1904,1.1673819742,-15696,9.6235438381,14,1.6463414634,-27,-0.8536585366,19,-1.1585365854,-2,0.0086956522,-53,-0.2304347826,139,-0.6780487805
16407161,17851.5625,-2336,1.4322501533,1952,1.1968117719,-15808,9.692213366,14,1.6463414634,-27,-0.8536585366,19,-1.1585365854,-6,0.0260869565,-49,-0.2130434783,137,-0.6682926829
16407801,17871.09375,-2272,1.3930104231,1984,1.216431637,-16000,9.8099325567,16,1.4024390244,-23,-0.9756097561,23,-1.4024390244,-6,0.0260869565,-50,-0.2173913043,137,-0.6682926829
16408441,17890.625,-2240,1.3733905579,1984,1.216431637,-15952,9.780502759,-23,2.3170731707,-38,1.4024390244,16,-0.9756097561,-6,0.0260869565,-49,-0.2130434783,137,-0.6682926829
16409081,17910.15625,-2192,1.3439607603,2000,1.2262415696,-15872,9.7314530963,-23,2.3170731707,-38,1.4024390244,16,-0.9756097561,-4,0.0173913043,-50,-0.2173913043,136,-0.6634146341
16409721,17929.6875,-1984,1.216431637,1952,1.1968117719,-15936,9.7706928265,-17,3.5365853659,-58,1.0365853659,4,-0.243902439,-6,0.0260869565,-48,-0.2086956522,138,-0.6731707317
16410361,17949.21875,-1968,1.2066217045,1888,1.1575720417,-15888,9.7412630288,-17,3.5365853659,-58,1.0365853659,4,-0.243902439,-5,0.0217391304,-47,-0.2043478261,137,-0.6682926829
