Shimmer,Shimmer,Shimmer,Shimmer,Shimmer,Shimmer,Shimmer,Shimmer,Shimmer,Shimmer,Shimmer,Shimmer,Shimmer,Shimmer,Shimmer,Shimmer,Shimmer,Shimmer,Shimmer,Shimmer
Timestamp,Timestamp,Wide Range Accelerometer X,Wide Range Accelerometer X,Wide Range Accelerometer Y,Wide Range Accelerometer Y,Wide Range Accelerometer Z,Wide Range Accelerometer Z,Gyroscope X,Gyroscope X,Gyroscope Y,Gyroscope Y,Gyroscope Z,Gyroscope Z,Magnetometer X,Magnetometer X,Magnetometer Y,Magnetometer Y,Magnetometer Z,Magnetometer Z
RAW,CAL,RAW,CAL,RAW,CAL,RAW,CAL,RAW,CAL,RAW,CAL,RAW,CAL,RAW,CAL,RAW,CAL,RAW,CAL
no units,mSecs,no units,m/(sec^2),no units,m/(sec^2),no units,m/(sec^2),no units,deg/sec,no units,deg/sec,no units,deg/sec,no units,local,no units,local,no units,local
6956665,6757.8125,-1728,1.0594727161,2512,1.5401594114,-15840,9.7118332311,8,1.5243902439,-25,-0.487804878,-12,0.7317073171,-5,0.0217391304,-61,-0.2652173913,142,-0.6926829268
6957305,6777.34375,-1712,1.0496627836,2592,1.5892090742,-15760,9.6627835684,8,1.5243902439,-25,-0.487804878,-12,0.7317073171,-5,0.0217391304,-64,-0.2782608696,141,-0.687804878
6957945,6796.875,-1584,0.9711833231,2592,1.5892090742,-15744,9.6529736358,-24,2.1341463415,-35,1.4634146341,-22,1.3414634146,-5,0.0217391304,-62,-0.2695652174,142,-0.6926829268
6958585,6816.40625,-1680,1.0300429185,2592,1.5892090742,-15760,9.6627835684,6,2.256097561,-37,-0.3658536585,-15,0.9146341463,-7,0.0304347826,-61,-0.2652173913,140,-0.6829268293
6959225,6835.9375,-1696,1.039852851,2528,1.549969344,-15712,9.6333537707,6,2.256097561,-37,-0.3658536585,-15,0.9146341463,-8,0.0347826087,-63,-0.2739130435,140,-0.6829268293
6959865,6855.46875,-1680,1.0300429185,2432,1.4911097486,-15728,9.6431637032,3,2.256097561,-37,-0.1829268293,-2,0.1219512195,-4,0.0173913043,-64,-0.2782608696,142,-0.6926829268
6960505,6875,-1568,0.9613733906,2448,1.5009196812,-15728,9.6431637032,3,2.256097561,-37,-0.1829268293,-2,0.1219512195,-5,0.0217391304,-63,-0.2739130435,143,-0.6975609756
6961145,6894.53125,-1632,1.0006131208,2544,1.5597792765,-15728,9.6431637032,29,1.7682926829,-29,-1.7682926829,15,-0.9146341463,-5,0.0217391304,-60,-0.2608695652,141,-0.687804878
6961785,6914.0625,-1696,1.039852851,2688,1.6480686695,-15712,9.6333537707,20,1.4024390244,-23,-1.2195121951,10,-0.6097560976,-6,0.0260869565,-60,-0.2608695652,139,-0.6780487805
6962425,6933.59375,-1696,1.039852851,2528,1.549969344,-15776,9.6725935009,20,1.4024390244,-23,-1.2195121951,10,-0.6097560976,-5,0.0217391304,-61,-0.2652173913,142,-0.6926829268
6963065,6953.125,-1712,1.0496627836,2416,1.4812998161,-15680,9.6137339056,-22,2.012195122,-33,1.3414634146,-7,0.4268292683,-7,0.0304347826,-63,-0.2739130435,142,-0.6926829268
6963705,6972.65625,-1648,1.0104230533,2496,1.5303494788,-15760,9.6627835684,-20,2.1951219512,-36,1.2195121951,-1,0.0609756098,-5,0.0217391304,-60,-0.2608695652,141,-0.687804878
6964345,6992.1875,-1632,1.0006131208,2480,1.5205395463,-15712,9.6333537707,-20,2.1951219512,-36,1.2195121951,-1,0.0609756098,-6,0.0260869565,-61,-0.2652173913,141,-0.687804878
6964985,7011.71875,-1568,0.9613733906,2512,1.5401594114,-15808,9.692213366,11,2.0731707317,-34,-0.6707317073,7,-0.4268292683,-8,0.0347826087,-60,-0.2608695652,141,-0.687804878
6965625,7031.25,-1648,1.0104230533,2480,1.5205395463,-15648,9.5941140405,11,2.0731707317,-34,-0.6707317073,7,-0.4268292683,-7,0.0304347826,-63,-0.2739130435,142,-0.6926829268
6966265,7050.78125,-1760,1.0790925812,2432,1.4911097486,-15648,9.5941140405,13,1.8902439024,-31,-0.7926829268,8,-0.487804878,-5,0.0217391304,-62,-0.2695652174,142,-0.6926829268
6966905,7070.3125,-1760,1.0790925812,2528,1.549969344,-15712,9.6333537707,-13,2.1951219512,-36,0.7926829268,8,-0.487804878,-4,0.0173913043,-64,-0.2782608696,141,-0.687804878
6967545,7089.84375,-1728,1.0594727161,2560,1.5695892091,-15744,9.6529736358,-13,2.1951219512,-36,0.7926829268,8,-0.487804878,-6,0.0260869565,-63,-0.2739130435,142,-0.6926829268
6968185,7109.375,-1664,1.0202329859,2496,1.5303494788,-15696,9.6235438381,-25,1.5853658537,-26,1.5243902439,12,-0.7317073171,-5,0.0217391304,-58,-0.252173913,141,-0.687804878
6968825,7128.90625,-1664,1.0202329859,2528,1.549969344,-15712,9.6333537707,-25,1.5853658537,-26,1.5243902439,12,-0.7317073171,-5,0.0217391304,-64,-0.2782608696,141,-0.687804878
6969465,7148.4375,-1584,0.9711833231,2592,1.5892090742,-15728,9.6431637032,-21,1.4634146341,-24,1.2804878049,10,-0.6097560976,-5,0.0217391304,-64,-0.2782608696,142,-0.6926829268
6970105,7167.96875,-1440,0.8828939301,2496,1.5303494788,-15728,9.6431637032,1,1.3414634146,-22,-0.0609756098,20,-1.2195121951,-6,0.0260869565,-61,-0.2652173913,142,-0.6926829268
6970745,7187.5,-1552,0.951563458,2544,1.5597792765,-15744,9.6529736358,1,1.3414634146,-22,-0.0609756098,20,-1.2195121951,-8,0.0347826087,-59,-0.2565217391,141,-0.687804878
6971385,7207.03125,-1648,1.0104230533,2640,1.6186388719,-15760,9.6627835684,7,1.4024390244,-23,-0.4268292683,8,-0.487804878,-5,0.0217391304,-63,-0.2739130435,142,-0.6926829268
6972025,7226.5625,-1568,0.9613733906,2512,1.5401594114,-15792,9.6824034335,7,1.4024390244,-23,-0.4268292683,8,-0.487804878,-8,0.0347826087,-57,-0.247826087,139,-0.6780487805
6972665,7246.09375,-1552,0.951563458,2432,1.4911097486,-15744,9.6529736358,-20,1.8292682927,-30,1.2195121951,11,-0.6707317073,-6,0.0260869565,-63,-0.2739130435,142,-0.6926829268
6973305,7265.625,-1504,0.9221336603,2368,1.4518700184,-15616,9.5744941754,-34,1.4024390244,-23,2.0731707317,4,-0.243902439,-8,0.0347826087,-59,-0.2565217391,140,-0.6829268293
6973945,7285.15625,-1376,0.8436541999,2384,1.461679951,-15616,9.5744941754,-34,1.4024390244,-23,2.0731707317,4,-0.243902439,-5,0.0217391304,-64,-0.2782608696,143,-0.6975609756
6974585,7304.6875,-1376,0.8436541999,2576,1.5793991416,-15568,9.5450643777,-2,0.9756097561,-16,0.1219512195,-4,0.243902439,-7,0.0304347826,-63,-0.2739130435,141,-0.687804878
6975225,7324.21875,-1552,0.951563458,2464,1.5107296137,-15504,9.5058246475,7,0.3048780488,-5,-0.4268292683,-1,0.0609756098,-5,0.0217391304,-60,-0.2608695652,141,-0.687804878
6975865,7343.75,-1536,0.9417535254,2384,1.461679951,-15600,9.5646842428,7,0.3048780488,-5,-0.4268292683,-1,0.0609756098,-6,0.0260869565,-59,-0.2565217391,142,-0.6926829268
6976505,7363.28125,-1520,0.9319435929,2368,1.4518700184,-15632,9.5843041079,-13,0.1219512195,-2,0.7926829268,-2,0.1219512195,-7,0.0304347826,-60,-0.2608695652,141,-0.687804878
6977145,7382.8125,-1536,0.9417535254,2368,1.4518700184,-15584,9.5548743102,-13,0.1219512195,-2,0.7926829268,-2,0.1219512195,-7,0.0304347826,-61,-0.2652173913,142,-0.6926829268
6977785,7402.34375,-1536,0.9417535254,2272,1.3930104231,-15632,9.5843041079,-21,-0.0609756098,1,1.2804878049,10,-0.6097560976,-6,0.0260869565,-61,-0.2652173913,141,-0.687804878
6978425,7421.875,-1456,0.8927038627,2368,1.4518700184,-15536,9.5254445126,-57,0.0609756098,-1,3.4756097561,-10,0.6097560976,-5,0.0217391304,-62,-0.2695652174,142,-0.6926829268
6979065,7441.40625,-1424,0.8730839975,2368,1.4518700184,-15584,9.5548743102,-57,0.0609756098,-1,3.4756097561,-10,0.6097560976,-7,0.0304347826,-63,-0.2739130435,143,-0.6975609756
6979705,7460.9375,-1472,0.9025137952,2336,1.4322501533,-15568,9.5450643777,-41,-1.0365853659,17,2.5,-18,1.0975609756,-8,0.0347826087,-62,-0.2695652174,143,-0.6975609756
6980345,7480.46875,-1424,0.8730839975,2224,1.3635806254,-15616,9.5744941754,-41,-1.0365853659,17,2.5,-18,1.0975609756,-5,0.0217391304,-62,-0.2695652174,142,-0.6926829268
6980985,7500,-1328,0.8142244022,2144,1.3145309626,-15776,9.6725935009,-28,-1.4024390244,23,1.7073170732,-11,0.6707317073,-6,0.0260869565,-63,-0.2739130435,143,-0.6975609756
6981625,7519.53125,-1504,0.9221336603,2208,1.3537706928,-15888,9.7412630288,13,-2.1951219512,36,-0.7926829268,5,-0.3048780488,-6,0.0260869565,-56,-0.2434782609,143,-0.6975609756
6982265,7539.0625,-1680,1.0300429185,2128,1.30472103,-16032,9.8295524218,13,-2.1951219512,36,-0.7926829268,5,-0.3048780488,-7,0.0304347826,-59,-0.2565217391,143,-0.6975609756
6982905,7558.59375,-1632,1.0006131208,2064,1.2654812998,-15952,9.780502759,-40,-1.1585365854,19,2.4390243902,-8,0.487804878,-5,0.0217391304,-62,-0.2695652174,143,-0.6975609756
6983545,7578.125,-1520,0.9319435929,2080,1.2752912324,-16128,9.8884120172,-41,0,0,2.5,-10,0.6097560976,-6,0.0260869565,-62,-0.2695652174,145,-0.7073170732
6984185,7597.65625,-1568,0.9613733906,2016,1.2360515021,-16176,9.9178418148,-41,0,0,2.5,-10,0.6097560976,-8,0.0347826087,-59,-0.2565217391,142,-0.6926829268
6984825,7617.1875,-1568,0.9613733906,1888,1.1575720417,-16240,9.9570815451,-18,0.7317073171,-12,1.0975609756,6,-0.3658536585,-6,0.0260869565,-60,-0.2608695652,143,-0.6975609756
6985465,7636.71875,-1552,0.951563458,1904,1.1673819742,-16176,9.9178418148,-18,0.7317073171,-12,1.0975609756,6,-0.3658536585,-7,0.0304347826,-63,-0.2739130435,144,-0.7024390244
6986105,7656.25,-1568,0.9613733906,1904,1.1673819742,-16176,9.9178418148,-9,1.5853658537,-26,0.5487804878,17,-1.0365853659,-7,0.0304347826,-59,-0.2565217391,143,-0.6975609756
6986745,7675.78125,-1568,0.9613733906,1856,1.1379521766,-16160,9.9080318823,-11,2.3170731707,-38,0.6707317073,29,-1.7682926829,-7,0.0304347826,-61,-0.2652173913,142,-0.6926829268
6987385,7695.3125,-1472,0.9025137952,1872,1.1477621091,-16016,9.8197424893,-11,2.3170731707,-38,0.6707317073,29,-1.7682926829,-6,0.0260869565,-62,-0.2695652174,144,-0.7024390244
6988025,7714.84375,-1344,0.8240343348,1872,1.1477621091,-16064,9.8491722869,-29,3.4146341463,-56,1.7682926829,21,-1.2804878049,-8,0.0347826087,-57,-0.247826087,142,-0.6926829268
6988665,7734.375,-1248,0.7651747394,1824,1.1183323115,-15968,9.7903126916,-29,3.4146341463,-56,1.7682926829,21,-1.2804878049,-7,0.0304347826,-58,-0.252173913,143,-0.6975609756
6989305,7753.90625,-1312,0.8044144697,1920,1.1771919068,-15888,9.7412630288,-14,3.8414634146,-63,0.8536585366,20,-1.2195121951,-9,0.0391304348,-58,-0.252173913,142,-0.6926829268
6989945,7773.4375,-1248,0.7651747394,1952,1.1968117719,-15888,9.7412630288,2,4.1463414634,-68,-0.1219512195,15,-0.9146341463,-9,0.0391304348,-61,-0.2652173913,144,-0.7024390244
6990585,7792.96875,-1344,0.8240343348,1936,1.1870018394,-15872,9.7314530963,2,4.1463414634,-68,-0.1219512195,15,-0.9146341463,-9,0.0391304348,-63,-0.2739130435,143,-0.6975609756
6991225,7812.5,-1376,0.8436541999,2032,1.2458614347,-15792,9.6824034335,-15,4.9390243902,-81,0.9146341463,10,-0.6097560976,-8,0.0347826087,-59,-0.2565217391,143,-0.6975609756
6991865,7832.03125,-1248,0.7651747394,2064,1.2654812998,-15616,9.5744941754,-28,4.8170731707,-79,1.7073170732,11,-0.6707317073,-9,0.0391304348,-56,-0.2434782609,142,-0.6926829268
6992505,7851.5625,-1120,0.686695279,2176,1.3341508277,-15648,9.5941140405,-28,4.8170731707,-79,1.7073170732,11,-0.6707317073,-9,0.0391304348,-63,-0.2739130435,144,-0.7024390244
6993145,7871.09375,15760,-9.6627835684,-14928,-9.1526670754,-24176,14.8228080932,9,3.7804878049,-62,-0.5487804878,12,-0.7317073171,-8,0.0347826087,-60,-0.2608695652,143,-0.6975609756
6993785,7890.625,4256,-2.6094420601,3440,2.1091354997,-14848,9.1036174126,9,3.7804878049,-62,-0.5487804878,12,-0.7317073171,-5,0.0217391304,-60,-0.2608695652,141,-0.687804878
6994425,7910.15625,-8016,4.9147762109,10528,6.4549356223,-15408,9.4469650521,3580,-31.4024390244,515,-218.2926829268,-512,31.2195121951,1,-0.0043478261,-58,-0.252173913,134,-0.6536585366
6995065,7929.6875,-10624,6.5137952177,2528,1.549969344,-16752,10.2709993869,-313,-6.6463414634,109,19.0853658537,596,-36.3414634146,3,-0.0130434783,-56,-0.2434782609,134,-0.6536585366
6995705,7949.21875,-10000,6.1312078479,320,0.1961986511,-16640,10.202329859,-313,-6.6463414634,109,19.0853658537,596,-36.3414634146,-1,0.0043478261,-55,-0.2391304348,135,-0.6585365854
6996345,7968.75,-5968,3.6591048437,448,0.2746781116,-16400,10.0551808706,-2615,27.4390243902,-450,159.4512195122,-116,7.0731707317,-4,0.0173913043,-54,-0.2347826087,138,-0.6731707317
6996985,7988.28125,-880,0.5395462906,2208,1.3537706928,-16144,9.8982219497,-2615,27.4390243902,-450,159.4512195122,-116,7.0731707317,-10,0.0434782609,-57,-0.247826087,143,-0.6975609756
6997625,8007.8125,2672,-1.638258737,1888,1.1575720417,-16208,9.93746168,-1327,-34.6341463415,568,80.9146341463,-24,1.4634146341,-11,0.047826087,-56,-0.2434782609,145,-0.7073170732
6998265,8027.34375,2192,-1.3439607603,-1024,-0.6278356836,-16800,10.3004291845,546,-0.243902439,4,-33.2926829268,56,-3.4146341463,-9,0.0391304348,-54,-0.2347826087,144,-0.7024390244
6998905,8046.875,-176,0.1079092581,544,0.3335377069,-16960,10.3985285101,546,-0.243902439,4,-33.2926829268,56,-3.4146341463,-9,0.0391304348,-53,-0.2304347826,141,-0.687804878
6999545,8066.40625,-1696,1.039852851,2096,1.2851011649,-16688,10.2317596567,561,2.012195122,-33,-34.2073170732,24,-1.4634146341,-9,0.0391304348,-55,-0.2391304348,143,-0.6975609756
7000185,8085.9375,-2144,1.3145309626,1664,1.0202329859,-16144,9.8982219497,240,3.8414634146,-63,-14.6341463415,18,-1.0975609756,-9,0.0391304348,-54,-0.2347826087,141,-0.687804878
7000825,8105.46875,-2528,1.549969344,1488,0.9123237278,-15872,9.7314530963,240,3.8414634146,-63,-14.6341463415,18,-1.0975609756,-6,0.0260869565,-58,-0.252173913,141,-0.687804878
7001465,8125,-2320,1.4224402207,1712,1.0496627836,-15728,9.6431637032,-229,5.6097560976,-92,13.9634146341,-20,1.2195121951,-6,0.0260869565,-55,-0.2391304348,142,-0.6926829268
7002105,8144.53125,-1728,1.0594727161,1728,1.0594727161,-15632,9.5843041079,-229,5.6097560976,-92,13.9634146341,-20,1.2195121951,-7,0.0304347826,-59,-0.2565217391,144,-0.7024390244
7002745,8164.0625,-1040,0.6376456162,1792,1.0987124464,-15472,9.4862047823,-299,4.8780487805,-80,18.2317073171,-53,3.2317073171,-8,0.0347826087,-57,-0.247826087,142,-0.6926829268
7003385,8183.59375,-672,0.4120171674,1920,1.1771919068,-15408,9.4469650521,22,2.8658536585,-47,-1.3414634146,-22,1.3414634146,-8,0.0347826087,-56,-0.2434782609,144,-0.7024390244
7004025,8203.125,-752,0.4610668302,1936,1.1870018394,-15520,9.51563458,22,2.8658536585,-47,-1.3414634146,-22,1.3414634146,-9,0.0391304348,-57,-0.247826087,141,-0.687804878
7004665,8222.65625,-1056,0.6474555487,1856,1.1379521766,-15600,9.5646842428,196,1.2195121951,-20,-11.9512195122,10,-0.6097560976,-7,0.0304347826,-58,-0.252173913,142,-0.6926829268
7005305,8242.1875,-1504,0.9221336603,1808,1.1085223789,-15920,9.7608828939,196,1.2195121951,-20,-11.9512195122,10,-0.6097560976,-9,0.0391304348,-60,-0.2608695652,142,-0.6926829268
7005945,8261.71875,-1712,1.0496627836,1776,1.0889025138,-16000,9.8099325567,72,1.7073170732,-28,-4.3902439024,-12,0.7317073171,-9,0.0391304348,-56,-0.2434782609,141,-0.687804878
7006585,8281.25,-1632,1.0006131208,1760,1.0790925812,-16128,9.8884120172,-70,3.2926829268,-54,4.2682926829,-20,1.2195121951,-8,0.0347826087,-59,-0.2565217391,141,-0.687804878
7007225,8300.78125,-1376,0.8436541999,1760,1.0790925812,-16272,9.9767014102,-70,3.2926829268,-54,4.2682926829,-20,1.2195121951,-7,0.0304347826,-61,-0.2652173913,143,-0.6975609756
7007865,8320.3125,-1168,0.7161250766,1792,1.0987124464,-16240,9.9570815451,-30,5.1219512195,-84,1.8292682927,-41,2.5,-9,0.0391304348,-55,-0.2391304348,142,-0.6926829268
7008505,8339.84375,5712,-3.5021459227,4640,2.8448804414,-14672,8.9957081545,-30,5.1219512195,-84,1.8292682927,-41,2.5,-7,0.0304347826,-54,-0.2347826087,140,-0.6829268293
7009145,8359.375,-4368,2.678111588,10032,6.1508277131,-15360,9.4175352544,1992,-24.8170731707,407,-121.4634146341,-608,37.0731707317,-4,0.0173913043,-55,-0.2391304348,138,-0.6731707317
7009785,8378.90625,-7920,4.8559166156,4704,2.8841201717,-16512,10.1238503985,-698,1.9512195122,-32,42.5609756098,421,-25.6707317073,-5,0.0217391304,-54,-0.2347826087,140,-0.6829268293
7010425,8398.4375,-5584,3.4236664623,624,0.3825873697,-16560,10.1532801962,-698,1.9512195122,-32,42.5609756098,421,-25.6707317073,-7,0.0304347826,-51,-0.2217391304,140,-0.6829268293
7011065,8417.96875,-1216,0.7455548743,1696,1.039852851,-15888,9.7412630288,-1876,18.9634146341,-311,114.3902439024,-221,13.4756097561,-8,0.0347826087,-60,-0.2608695652,146,-0.712195122
7011705,8437.5,2528,-1.549969344,1632,1.0006131208,-15648,9.5941140405,-133,1.1585365854,-19,8.1097560976,-110,6.7073170732,-11,0.047826087,-57,-0.247826087,146,-0.712195122
7012345,8457.03125,2448,-1.5009196812,400,0.2452483139,-15856,9.7216431637,-133,1.1585365854,-19,8.1097560976,-110,6.7073170732,-10,0.0434782609,-56,-0.2434782609,146,-0.712195122
7012985,8476.5625,-192,0.1177191907,912,0.5591661557,-16544,10.1434702636,1085,-4.4512195122,73,-66.1585365854,87,-5.3048780488,-8,0.0347826087,-60,-0.2608695652,146,-0.712195122
7013625,8496.09375,-2656,1.6284488044,1568,0.9613733906,-16960,10.3985285101,1085,-4.4512195122,73,-66.1585365854,87,-5.3048780488,-5,0.0217391304,-59,-0.2565217391,144,-0.7024390244
7014265,8515.625,-3216,1.9717964439,1344,0.8240343348,-16800,10.3004291845,402,2.1341463415,-35,-24.512195122,32,-1.9512195122,-8,0.0347826087,-56,-0.2434782609,141,-0.687804878
7014905,8535.15625,-2624,1.6088289393,1168,0.7161250766,-16576,10.1630901288,-116,6.2804878049,-103,7.0731707317,-30,1.8292682927,-8,0.0347826087,-55,-0.2391304348,141,-0.687804878
7015545,8554.6875,-2160,1.3243408952,1280,0.7847946045,-15840,9.7118332311,-116,6.2804878049,-103,7.0731707317,-30,1.8292682927,-5,0.0217391304,-59,-0.2565217391,143,-0.6975609756
7016185,8574.21875,-1568,0.9613733906,1392,0.8534641324,-16000,9.8099325567,-287,7.743902439,-127,17.5,-42,2.5609756098,-5,0.0217391304,-61,-0.2652173913,144,-0.7024390244
7016825,8593.75,-1280,0.7847946045,1440,0.8828939301,-16112,9.8786020846,-287,7.743902439,-127,17.5,-42,2.5609756098,-7,0.0304347826,-56,-0.2434782609,142,-0.6926829268
7017465,8613.28125,-1008,0.6180257511,1568,0.9613733906,-16000,9.8099325567,-137,8.5365853659,-140,8.3536585366,-43,2.6219512195,-8,0.0347826087,-58,-0.252173913,143,-0.6975609756
7018105,8632.8125,-928,0.5689760883,1664,1.0202329859,-15808,9.692213366,72,8.2926829268,-136,-4.3902439024,-19,1.1585365854,-8,0.0347826087,-53,-0.2304347826,141,-0.687804878
7018745,8652.34375,-1200,0.7357449418,1616,0.9908031882,-15616,9.5744941754,72,8.2926829268,-136,-4.3902439024,-19,1.1585365854,-6,0.0260869565,-56,-0.2434782609,142,-0.6926829268
7019385,8671.875,-1536,0.9417535254,1696,1.039852851,-15568,9.5450643777,156,7.1341463415,-117,-9.512195122,-3,0.1829268293,-7,0.0304347826,-58,-0.252173913,143,-0.6975609756
7020025,8691.40625,-1872,1.1477621091,1792,1.0987124464,-15728,9.6431637032,-6,6.7682926829,-111,0.3658536585,-16,0.9756097561,-7,0.0304347826,-59,-0.2565217391,143,-0.6975609756
7020665,8710.9375,-1616,0.9908031882,1808,1.1085223789,-15744,9.6529736358,-6,6.7682926829,-111,0.3658536585,-16,0.9756097561,-11,0.047826087,-60,-0.2608695652,143,-0.6975609756
7021305,8730.46875,-1312,0.8044144697,1728,1.0594727161,-15744,9.6529736358,-66,7.1341463415,-117,4.0243902439,-28,1.7073170732,-6,0.0260869565,-59,-0.2565217391,141,-0.687804878
7021945,8750,-1200,0.7357449418,1872,1.1477621091,-15584,9.5548743102,-66,7.1341463415,-117,4.0243902439,-28,1.7073170732,-7,0.0304347826,-59,-0.2565217391,142,-0.6926829268
7022585,8769.53125,-1328,0.8142244022,1840,1.128142244,-15648,9.5941140405,41,6.7073170732,-110,-2.5,-27,1.6463414634,-7,0.0304347826,-59,-0.2565217391,140,-0.6829268293
7023225,8789.0625,7840,-4.8068669528,-432,-0.264868179,-3264,2.0012262416,1648,-46.7682926829,767,-100.487804878,-1302,79.3902439024,-8,0.0347826087,-57,-0.247826087,142,-0.6926829268
7023865,8808.59375,-1440,0.8828939301,8016,4.9147762109,-12048,7.3868792152,1648,-46.7682926829,767,-100.487804878,-1302,79.3902439024,-5,0.0217391304,-57,-0.247826087,140,-0.6829268293
7024505,8828.125,-7552,4.6302881668,6064,3.717964439,-14960,9.1722869405,557,-21.8902439024,359,-33.9634146341,497,-30.3048780488,0,0,-59,-0.2565217391,137,-0.6682926829
7025145,8847.65625,-7040,4.316370325,560,0.3433476395,-16224,9.9472716125,557,-21.8902439024,359,-33.9634146341,497,-30.3048780488,-3,0.0130434783,-54,-0.2347826087,139,-0.6780487805
7025785,8867.1875,-4176,2.5603923973,624,0.3825873697,-15632,9.5843041079,-1708,11.6463414634,-191,104.1463414634,-67,4.0853658537,-6,0.0260869565,-56,-0.2434782609,143,-0.6975609756
7026425,8886.71875,-784,0.4806866953,2672,1.638258737,-15824,9.7020232986,-1549,11.1585365854,-183,94.4512195122,-81,4.9390243902,-7,0.0304347826,-59,-0.2565217391,144,-0.7024390244
7027065,8906.25,3872,-2.3740036787,1440,0.8828939301,-16688,10.2317596567,-1549,11.1585365854,-183,94.4512195122,-81,4.9390243902,-10,0.0434782609,-59,-0.2565217391,148,-0.7219512195
7027705,8925.78125,2960,-1.814837523,-48,-0.0294297977,-16624,10.1925199264,530,-4.6951219512,77,-32.3170731707,0,0,-11,0.047826087,-52,-0.2260869565,144,-0.7024390244
7028345,8945.3125,-416,0.2550582465,768,0.4708767627,-17024,10.4377682403,1230,-3.5365853659,58,-75,96,-5.8536585366,-11,0.047826087,-55,-0.2391304348,143,-0.6975609756
7028985,8964.84375,-3024,1.8540772532,1392,0.8534641324,-17232,10.5652973636,1230,-3.5365853659,58,-75,96,-5.8536585366,-6,0.0260869565,-57,-0.247826087,144,-0.7024390244
7029625,8984.375,-3712,2.2759043532,1264,0.774984672,-17136,10.5064377682,346,4.2682926829,-70,-21.0975609756,36,-2.1951219512,-4,0.0173913043,-59,-0.2565217391,142,-0.6926829268
7030265,9003.90625,-3376,2.0698957695,1264,0.774984672,-16800,10.3004291845,346,4.2682926829,-70,-21.0975609756,36,-2.1951219512,-7,0.0304347826,-54,-0.2347826087,140,-0.6829268293
7030905,9023.4375,-2560,1.5695892091,1344,0.8240343348,-16576,10.1630901288,-308,9.1463414634,-150,18.7804878049,-16,0.9756097561,-7,0.0304347826,-54,-0.2347826087,141,-0.687804878
7031545,9042.96875,-1536,0.9417535254,1296,0.7946045371,-16336,10.0159411404,-392,10.4268292683,-171,23.9024390244,-25,1.5243902439,-6,0.0260869565,-58,-0.252173913,143,-0.6975609756
7032185,9062.5,-1040,0.6376456162,1424,0.8730839975,-16080,9.8589822195,-392,10.4268292683,-171,23.9024390244,-25,1.5243902439,-8,0.0347826087,-54,-0.2347826087,142,-0.6926829268
7032825,9082.03125,-864,0.5297363581,1680,1.0300429185,-15792,9.6824034335,-108,10.3048780488,-169,6.5853658537,-8,0.487804878,-6,0.0260869565,-56,-0.2434782609,143,-0.6975609756
7033465,9101.5625,-880,0.5395462906,1680,1.0300429185,-15584,9.5548743102,-108,10.3048780488,-169,6.5853658537,-8,0.487804878,-6,0.0260869565,-57,-0.247826087,144,-0.7024390244
7034105,9121.09375,-1184,0.7259350092,1664,1.0202329859,-15488,9.4960147149,139,8.7195121951,-143,-8.4756097561,9,-0.5487804878,-10,0.0434782609,-57,-0.247826087,143,-0.6975609756
7034745,9140.625,-1568,0.9613733906,1744,1.0692826487,-15472,9.4862047823,157,7.4390243902,-122,-9.5731707317,12,-0.7317073171,-8,0.0347826087,-58,-0.252173913,143,-0.6975609756
7035385,9160.15625,-1696,1.039852851,1824,1.1183323115,-15568,9.5450643777,157,7.4390243902,-122,-9.5731707317,12,-0.7317073171,-6,0.0260869565,-59,-0.2565217391,143,-0.6975609756
7036025,9179.6875,-1696,1.039852851,1808,1.1085223789,-15600,9.5646842428,-19,7.3170731707,-120,1.1585365854,-4,0.243902439,-7,0.0304347826,-62,-0.2695652174,142,-0.6926829268
7036665,9199.21875,-1344,0.8240343348,1776,1.0889025138,-15696,9.6235438381,-19,7.3170731707,-120,1.1585365854,-4,0.243902439,-6,0.0260869565,-57,-0.247826087,142,-0.6926829268
7037305,9218.75,-1184,0.7259350092,1888,1.1575720417,-15680,9.6137339056,-51,7.6829268293,-126,3.1097560976,-27,1.6463414634,-7,0.0304347826,-55,-0.2391304348,141,-0.687804878
7037945,9238.28125,-1104,0.6768853464,1936,1.1870018394,-15744,9.6529736358,49,7.1951219512,-118,-2.987804878,-25,1.5243902439,-8,0.0347826087,-54,-0.2347826087,141,-0.687804878
7038585,9257.8125,-1360,0.8338442673,2032,1.2458614347,-15776,9.6725935009,49,7.1951219512,-118,-2.987804878,-25,1.5243902439,-7,0.0304347826,-60,-0.2608695652,142,-0.6926829268
7039225,9277.34375,2448,-1.5009196812,4528,2.7762109135,-15472,9.4862047823,746,274.6341463415,-4504,-45.487804878,339,-20.6707317073,-7,0.0304347826,-57,-0.247826087,142,-0.6926829268
7039865,9296.875,-5344,3.2765174739,11776,7.2201103617,-14960,9.1722869405,694,-8.5365853659,140,-42.3170731707,373,-22.743902439,-5,0.0217391304,-57,-0.247826087,140,-0.6829268293
7040505,9316.40625,-7152,4.3850398529,5328,3.2667075414,-16016,9.8197424893,694,-8.5365853659,140,-42.3170731707,373,-22.743902439,-5,0.0217391304,-52,-0.2260869565,137,-0.6682926829
7041145,9335.9375,-5248,3.2176578786,1056,0.6474555487,-16272,9.9767014102,-1393,7.3170731707,-120,84.9390243902,112,-6.8292682927,-6,0.0260869565,-61,-0.2652173913,142,-0.6926829268
7041785,9355.46875,-1600,0.9809932557,1504,0.9221336603,-15664,9.603923973,-1393,7.3170731707,-120,84.9390243902,112,-6.8292682927,-9,0.0391304348,-58,-0.252173913,141,-0.687804878
7042425,9375,1872,-1.1477621091,1920,1.1771919068,-15616,9.5744941754,-1388,10.1219512195,-166,84.6341463415,-183,11.1585365854,-12,0.052173913,-55,-0.2391304348,145,-0.7073170732
7043065,9394.53125,3024,-1.8540772532,768,0.4708767627,-15472,9.4862047823,661,-4.1463414634,68,-40.3048780488,-14,0.8536585366,-10,0.0434782609,-60,-0.2608695652,146,-0.712195122
7043705,9414.0625,96,-0.0588595953,1184,0.7259350092,-16064,9.8491722869,661,-4.1463414634,68,-40.3048780488,-14,0.8536585366,-9,0.0391304348,-55,-0.2391304348,143,-0.6975609756
7044345,9433.59375,-2656,1.6284488044,1808,1.1085223789,-16496,10.114040466,1145,-2.8048780488,46,-69.8170731707,50,-3.0487804878,-6,0.0260869565,-57,-0.247826087,141,-0.687804878
7044985,9453.125,-3632,2.2268546904,1808,1.1085223789,-16576,10.1630901288,1145,-2.8048780488,46,-69.8170731707,50,-3.0487804878,-8,0.0347826087,-55,-0.2391304348,140,-0.6829268293
7045625,9472.65625,-3360,2.0600858369,1648,1.0104230533,-16240,9.9570815451,286,2.743902439,-45,-17.4390243902,15,-0.9146341463,-6,0.0260869565,-52,-0.2260869565,140,-0.6829268293
7046265,9492.1875,-2752,1.6873083998,1696,1.039852851,-16160,9.9080318823,-279,5.6097560976,-92,17.012195122,-43,2.6219512195,-7,0.0304347826,-59,-0.2565217391,142,-0.6926829268
7046905,9511.71875,-1728,1.0594727161,1632,1.0006131208,-16128,9.8884120172,-279,5.6097560976,-92,17.012195122,-43,2.6219512195,-5,0.0217391304,-58,-0.252173913,143,-0.6975609756
7047545,9531.25,-1120,0.686695279,1648,1.0104230533,-15968,9.7903126916,-325,6.2195121951,-102,19.8170731707,-30,1.8292682927,-9,0.0391304348,-53,-0.2304347826,141,-0.687804878
7048185,9550.78125,-1056,0.6474555487,1744,1.0692826487,-15728,9.6431637032,-19,5.5487804878,-91,1.1585365854,5,-0.3048780488,-8,0.0347826087,-56,-0.2434782609,141,-0.687804878
7048825,9570.3125,-1120,0.686695279,1888,1.1575720417,-15696,9.6235438381,-19,5.5487804878,-91,1.1585365854,5,-0.3048780488,-8,0.0347826087,-59,-0.2565217391,141,-0.687804878
7049465,9589.84375,-1280,0.7847946045,1936,1.1870018394,-15664,9.603923973,125,5.243902439,-86,-7.6219512195,-5,0.3048780488,-8,0.0347826087,-54,-0.2347826087,142,-0.6926829268
7050105,9609.375,-1568,0.9613733906,1936,1.1870018394,-15600,9.5646842428,125,5.243902439,-86,-7.6219512195,-5,0.3048780488,-7,0.0304347826,-57,-0.247826087,140,-0.6829268293
7050745,9628.90625,-1936,1.1870018394,1984,1.216431637,-15504,9.5058246475,104,4.6341463415,-76,-6.3414634146,-3,0.1829268293,-6,0.0260869565,-54,-0.2347826087,143,-0.6975609756
7051385,9648.4375,-1824,1.1183323115,1952,1.1968117719,-15616,9.5744941754,-79,4.2682926829,-70,4.8170731707,-15,0.9146341463,-10,0.0434782609,-54,-0.2347826087,141,-0.687804878
7052025,9667.96875,-1488,0.9123237278,2016,1.2360515021,-15680,9.6137339056,-79,4.2682926829,-70,4.8170731707,-15,0.9146341463,-8,0.0347826087,-55,-0.2391304348,140,-0.6829268293
7052665,9687.5,-9856,6.0429184549,2864,1.7559779277,5760,-3.5315757204,-746,-40.7317073171,668,45.487804878,488,-29.756097561,-7,0.0304347826,-56,-0.2434782609,142,-0.6926829268
7053305,9707.03125,-6032,3.6983445739,9392,5.7584304108,-10000,6.1312078479,-746,-40.7317073171,668,45.487804878,488,-29.756097561,-2,0.0086956522,-55,-0.2391304348,139,-0.6780487805
7053945,9726.5625,-11632,7.1318209687,6704,4.1103617413,-15216,9.3292458614,2227,-35.0609756098,575,-135.7926829268,413,-25.1829268293,-1,0.0043478261,-53,-0.2304347826,136,-0.6634146341
7054585,9746.09375,-10656,6.5334150828,256,0.1569589209,-17408,10.6732066217,-1492,8.2317073171,-135,90.9756097561,305,-18.5975609756,0,0,-50,-0.2173913043,135,-0.6585365854
7055225,9765.625,-6240,3.8258736971,1104,0.6768853464,-17024,10.4377682403,-1492,8.2317073171,-135,90.9756097561,305,-18.5975609756,-4,0.0173913043,-56,-0.2434782609,138,-0.6731707317
7055865,9785.15625,4112,-2.5211526671,1104,0.6768853464,-16176,9.9178418148,-2989,24.756097561,-406,182.256097561,-408,24.8780487805,-11,0.047826087,-55,-0.2391304348,144,-0.7024390244
7056505,9804.6875,3712,-2.2759043532,432,0.264868179,-16096,9.8687921521,323,-6.6463414634,109,-19.6951219512,208,-12.6829268293,-12,0.052173913,-53,-0.2304347826,145,-0.7073170732
7057145,9824.21875,1056,-0.6474555487,688,0.4218270999,-16816,10.3102391171,323,-6.6463414634,109,-19.6951219512,208,-12.6829268293,-9,0.0391304348,-52,-0.2260869565,144,-0.7024390244
7057785,9843.75,-1872,1.1477621091,1536,0.9417535254,-17136,10.5064377682,993,2.256097561,-37,-60.5487804878,52,-3.1707317073,-7,0.0304347826,-55,-0.2391304348,141,-0.687804878
7058425,9863.28125,-2944,1.8050275904,1520,0.9319435929,-16880,10.3494788473,993,2.256097561,-37,-60.5487804878,52,-3.1707317073,-7,0.0304347826,-52,-0.2260869565,141,-0.687804878
7059065,9882.8125,-2976,1.8246474555,1328,0.8142244022,-16400,10.0551808706,454,7.012195122,-115,-27.6829268293,38,-2.3170731707,-5,0.0217391304,-53,-0.2304347826,142,-0.6926829268
7059705,9902.34375,-3072,1.8835070509,1504,0.9221336603,-16000,9.8099325567,-25,8.4146341463,-138,1.5243902439,-39,2.3780487805,-4,0.0173913043,-57,-0.247826087,143,-0.6975609756
7060345,9921.875,-2528,1.549969344,1520,0.9319435929,-15856,9.7216431637,-25,8.4146341463,-138,1.5243902439,-39,2.3780487805,-7,0.0304347826,-55,-0.2391304348,140,-0.6829268293
7060985,9941.40625,-1952,1.1968117719,1504,0.9221336603,-15776,9.6725935009,-359,8.7804878049,-144,21.8902439024,-25,1.5243902439,-5,0.0217391304,-56,-0.2434782609,142,-0.6926829268
7061625,9960.9375,-1456,0.8927038627,1552,0.951563458,-15552,9.5352544451,-359,8.7804878049,-144,21.8902439024,-25,1.5243902439,-7,0.0304347826,-59,-0.2565217391,143,-0.6975609756
7062265,9980.46875,-1152,0.7063151441,1728,1.0594727161,-15424,9.4567749847,-225,8.5365853659,-140,13.7195121951,-4,0.243902439,-7,0.0304347826,-58,-0.252173913,143,-0.6975609756
7062905,10000,-992,0.6082158185,1808,1.1085223789,-15376,9.427345187,84,7.0731707317,-116,-5.1219512195,33,-2.012195122,-8,0.0347826087,-58,-0.252173913,142,-0.6926829268
7063545,10019.53125,-1104,0.6768853464,1808,1.1085223789,-15328,9.3979153893,84,7.0731707317,-116,-5.1219512195,33,-2.012195122,-5,0.0217391304,-59,-0.2565217391,143,-0.6975609756
7064185,10039.0625,-1392,0.8534641324,1872,1.1477621091,-15392,9.4371551196,213,4.6341463415,-76,-12.987804878,50,-3.0487804878,-7,0.0304347826,-59,-0.2565217391,143,-0.6975609756
7064825,10058.59375,-1808,1.1085223789,1952,1.1968117719,-15536,9.5254445126,52,3.9024390244,-64,-3.1707317073,36,-2.1951219512,-6,0.0260869565,-56,-0.2434782609,142,-0.6926829268
7065465,10078.125,-2080,1.2752912324,1872,1.1477621091,-15600,9.5646842428,52,3.9024390244,-64,-3.1707317073,36,-2.1951219512,-4,0.0173913043,-60,-0.2608695652,141,-0.687804878
7066105,10097.65625,-1968,1.2066217045,1808,1.1085223789,-15536,9.5254445126,-151,5.0609756098,-83,9.2073170732,13,-0.7926829268,-5,0.0217391304,-60,-0.2608695652,142,-0.6926829268
7066745,10117.1875,-1616,0.9908031882,1792,1.0987124464,-15408,9.4469650521,-151,5.0609756098,-83,9.2073170732,13,-0.7926829268,-7,0.0304347826,-55,-0.2391304348,141,-0.687804878
7067385,10136.71875,-1344,0.8240343348,1904,1.1673819742,-15440,9.4665849172,-75,4.2073170732,-69,4.5731707317,17,-1.0365853659,-6,0.0260869565,-56,-0.2434782609,142,-0.6926829268
7068025,10156.25,-1552,0.951563458,1888,1.1575720417,-15376,9.427345187,28,2.1341463415,-35,-1.7073170732,48,-2.9268292683,-5,0.0217391304,-60,-0.2608695652,143,-0.6975609756
7068665,10175.78125,-2128,1.30472103,1888,1.1575720417,-15264,9.3586756591,28,2.1341463415,-35,-1.7073170732,48,-2.9268292683,-6,0.0260869565,-60,-0.2608695652,142,-0.6926829268
7069305,10195.3125,-2704,1.6578786021,2032,1.2458614347,-15232,9.339055794,-96,1.3414634146,-22,5.8536585366,50,-3.0487804878,-7,0.0304347826,-56,-0.2434782609,143,-0.6975609756
7069945,10214.84375,-3232,1.9816063765,2096,1.2851011649,-15168,9.2998160638,-96,1.3414634146,-22,5.8536585366,50,-3.0487804878,-7,0.0304347826,-59,-0.2565217391,142,-0.6926829268
7070585,10234.375,-3552,2.1778050276,2160,1.3243408952,-15456,9.4763948498,-251,-0.4268292683,7,15.3048780488,105,-6.4024390244,-6,0.0260869565,-61,-0.2652173913,145,-0.7073170732
7071225,10253.90625,-3632,2.2268546904,2016,1.2360515021,-15872,9.7314530963,-368,-0.9146341463,15,22.4390243902,193,-11.7682926829,-8,0.0347826087,-61,-0.2652173913,146,-0.712195122
7071865,10273.4375,-2976,1.8246474555,1648,1.0104230533,-16432,10.0748007357,-368,-0.9146341463,15,22.4390243902,193,-11.7682926829,-8,0.0347826087,-58,-0.252173913,144,-0.7024390244
7072505,10292.96875,-2496,1.5303494788,1792,1.0987124464,-16800,10.3004291845,-112,-0.6097560976,10,6.8292682927,332,-20.243902439,-9,0.0391304348,-58,-0.252173913,144,-0.7024390244
7073145,10312.5,-2816,1.72654813,2016,1.2360515021,-17392,10.6633966891,-112,-0.6097560976,10,6.8292682927,332,-20.243902439,-9,0.0391304348,-55,-0.2391304348,142,-0.6926829268
7073785,10332.03125,-3408,2.0895156346,1968,1.2066217045,-18240,11.1833231147,93,0.5487804878,-9,-5.6707317073,466,-28.4146341463,-9,0.0391304348,-61,-0.2652173913,146,-0.712195122
7074425,10351.5625,-3232,1.9816063765,1712,1.0496627836,-19056,11.683629675,-231,8.7804878049,-144,14.0853658537,499,-30.4268292683,-8,0.0347826087,-60,-0.2608695652,144,-0.7024390244
7075065,10371.09375,-2496,1.5303494788,1696,1.039852851,-19840,12.1643163703,-231,8.7804878049,-144,14.0853658537,499,-30.4268292683,-10,0.0434782609,-62,-0.2695652174,144,-0.7024390244
7075705,10390.625,-1408,0.863274065,1520,0.9319435929,-20704,12.6940527284,-244,19.3902439024,-318,14.8780487805,576,-35.1219512195,-12,0.052173913,-59,-0.2565217391,145,-0.7073170732
7076345,10410.15625,-624,0.3825873697,1328,0.8142244022,-21120,12.9491109749,-5,33.3536585366,-547,0.3048780488,695,-42.3780487805,-14,0.0608695652,-66,-0.2869565217,146,-0.712195122
7076985,10429.6875,16,-0.0098099326,1152,0.7063151441,-21216,13.0079705702,-5,33.3536585366,-547,0.3048780488,695,-42.3780487805,-10,0.0434782609,-68,-0.2956521739,145,-0.7073170732
7077625,10449.21875,400,-0.2452483139,1168,0.7161250766,-21072,12.9196811772,230,45.8536585366,-752,-14.0243902439,709,-43.2317073171,-10,0.0434782609,-71,-0.3086956522,144,-0.7024390244
7078265,10468.75,560,-0.3433476395,1664,1.0202329859,-20640,12.6548129982,230,45.8536585366,-752,-14.0243902439,709,-43.2317073171,-12,0.052173913,-72,-0.3130434783,144,-0.7024390244
7078905,10488.28125,912,-0.5591661557,2016,1.2360515021,-20160,12.3605150215,223,58.2317073171,-955,-13.5975609756,612,-37.3170731707,-10,0.0434782609,-76,-0.3304347826,143,-0.6975609756
7079545,10507.8125,1472,-0.9025137952,2192,1.3439607603,-19264,11.8111587983,147,69.6951219512,-1143,-8.9634146341,518,-31.5853658537,-10,0.0434782609,-79,-0.3434782609,141,-0.687804878
7080185,10527.34375,1872,-1.1477621091,2560,1.5695892091,-18320,11.2323727774,147,69.6951219512,-1143,-8.9634146341,518,-31.5853658537,-10,0.0434782609,-82,-0.3565217391,139,-0.6780487805
7080825,10546.875,2208,-1.3537706928,3024,1.8540772532,-17584,10.7811158798,159,75.1829268293,-1233,-9.6951219512,391,-23.8414634146,-12,0.052173913,-80,-0.347826087,141,-0.687804878
7081465,10566.40625,2496,-1.5303494788,3264,2.0012262416,-16976,10.4083384427,159,75.1829268293,-1233,-9.6951219512,391,-23.8414634146,-12,0.052173913,-81,-0.352173913,137,-0.6682926829
7082105,10585.9375,2656,-1.6284488044,3168,1.9423666462,-16432,10.0748007357,89,80.1219512195,-1314,-5.4268292683,238,-14.512195122,-11,0.047826087,-88,-0.3826086957,137,-0.6682926829
7082745,10605.46875,2464,-1.5107296137,3152,1.9325567137,-16224,9.9472716125,69,82.8658536585,-1359,-4.2073170732,75,-4.5731707317,-11,0.047826087,-85,-0.3695652174,136,-0.6634146341
7083385,10625,2304,-1.4126302882,3616,2.2170447578,-15616,9.5744941754,69,82.8658536585,-1359,-4.2073170732,75,-4.5731707317,-11,0.047826087,-88,-0.3826086957,132,-0.643902439
7084025,10644.53125,2368,-1.4518700184,4000,2.4524831392,-14864,9.1134273452,-92,85.487804878,-1402,5.6097560976,-95,5.7926829268,-10,0.0434782609,-93,-0.4043478261,134,-0.6536585366
7084665,10664.0625,2448,-1.5009196812,4720,2.8939301042,-13968,8.564071122,-187,86.6463414634,-1421,11.4024390244,-242,14.756097561,-10,0.0434782609,-93,-0.4043478261,130,-0.6341463415
7085305,10683.59375,2464,-1.5107296137,5552,3.4040465972,-13184,8.0833844267,-187,86.6463414634,-1421,11.4024390244,-242,14.756097561,-13,0.0565217391,-94,-0.4086956522,129,-0.6292682927
7085945,10703.125,2528,-1.549969344,6240,3.8258736971,-12528,7.6811771919,-265,83.0487804878,-1362,16.1585365854,-386,23.5365853659,-9,0.0391304348,-98,-0.4260869565,127,-0.6195121951
7086585,10722.65625,2480,-1.5205395463,6960,4.2673206622,-11952,7.3280196199,-265,83.0487804878,-1362,16.1585365854,-386,23.5365853659,-9,0.0391304348,-93,-0.4043478261,127,-0.6195121951
7087225,10742.1875,2496,-1.5303494788,7312,4.4831391784,-11472,7.0337216432,-318,76.4024390244,-1253,19.3902439024,-522,31.8292682927,-8,0.0347826087,-94,-0.4086956522,123,-0.6
7087865,10761.71875,2736,-1.6774984672,7424,4.5518087063,-10816,6.6315144083,-408,69.2073170732,-1135,24.8780487805,-667,40.6707317073,-10,0.0434782609,-96,-0.4173913043,124,-0.6048780488
7088505,10781.25,2624,-1.6088289393,7760,4.75781729,-10208,6.2587369712,-408,69.2073170732,-1135,24.8780487805,-667,40.6707317073,-7,0.0304347826,-98,-0.4260869565,123,-0.6
7089145,10800.78125,2624,-1.6088289393,8064,4.9442060086,-9632,5.9055793991,-444,59.6951219512,-979,27.0731707317,-831,50.6707317073,-7,0.0304347826,-100,-0.4347826087,124,-0.6048780488
7089785,10820.3125,2736,-1.6774984672,8208,5.0324954016,-9072,5.5622317597,-444,59.6951219512,-979,27.0731707317,-831,50.6707317073,-7,0.0304347826,-97,-0.4217391304,120,-0.5853658537
7090425,10839.84375,2704,-1.6578786021,8640,5.2973635806,-8496,5.2090741876,-524,49.8170731707,-817,31.9512195122,-1010,61.5853658537,-7,0.0304347826,-94,-0.4086956522,121,-0.5902439024
7091065,10859.375,2528,-1.549969344,8992,5.5131820969,-8128,4.9834457388,-532,36.8902439024,-605,32.4390243902,-1192,72.6829268293,-5,0.0217391304,-98,-0.4260869565,120,-0.5853658537
7091705,10878.90625,2112,-1.2949110975,9152,5.6112814224,-7856,4.8166768853,-532,36.8902439024,-605,32.4390243902,-1192,72.6829268293,-4,0.0173913043,-95,-0.4130434783,120,-0.5853658537
7092345,10898.4375,1600,-0.9809932557,8832,5.4150827713,-7600,4.6597179644,-564,25.1219512195,-412,34.3902439024,-1391,84.8170731707,-2,0.0086956522,-95,-0.4130434783,121,-0.5902439024
7092985,10917.96875,1200,-0.7357449418,8720,5.3464132434,-7104,4.3556100552,-647,12.256097561,-201,39.4512195122,-1565,95.4268292683,-3,0.0130434783,-88,-0.3826086957,121,-0.5902439024
7093625,10937.5,560,-0.3433476395,8928,5.4739423666,-6896,4.2280809319,-647,12.256097561,-201,39.4512195122,-1565,95.4268292683,-1,0.0043478261,-85,-0.3695652174,121,-0.5902439024
7094265,10957.03125,-208,0.1275291232,8960,5.4935622318,-7072,4.3359901901,-654,-3.6585365854,60,39.8780487805,-1688,102.9268292683,2,-0.0086956522,-88,-0.3826086957,122,-0.5951219512
7094905,10976.5625,-752,0.4610668302,8608,5.2777437155,-7216,4.4242795831,-654,-3.6585365854,60,39.8780487805,-1688,102.9268292683,1,-0.0043478261,-82,-0.3565217391,123,-0.6
7095545,10996.09375,-1168,0.7161250766,8096,4.9638258737,-7456,4.5714285714,-762,-17.012195122,279,46.4634146341,-1785,108.8414634146,0,0,-78,-0.3391304348,125,-0.6097560976
7096185,11015.625,-1744,1.0692826487,7808,4.7872470877,-7584,4.6499080319,-769,-32.8048780488,538,46.8902439024,-1773,108.1097560976,2,-0.0086956522,-78,-0.3391304348,127,-0.6195121951
7096825,11035.15625,-2144,1.3145309626,7648,4.6891477621,-8352,5.1207847946,-769,-32.8048780488,538,46.8902439024,-1773,108.1097560976,3,-0.0130434783,-70,-0.3043478261,128,-0.6243902439
7097465,11054.6875,-2432,1.4911097486,7296,4.4733292459,-8688,5.3267933783,-751,-46.2804878049,759,45.7926829268,-1720,104.8780487805,1,-0.0043478261,-66,-0.2869565217,130,-0.6341463415
7098105,11074.21875,-2688,1.6480686695,6624,4.0613120785,-8576,5.2581238504,-751,-46.2804878049,759,45.7926829268,-1720,104.8780487805,4,-0.0173913043,-67,-0.2913043478,133,-0.6487804878
7098745,11093.75,-3152,1.9325567137,6240,3.8258736971,-8912,5.4641324341,-902,-58.3536585366,957,55,-1577,96.1585365854,1,-0.0043478261,-62,-0.2695652174,134,-0.6536585366
7099385,11113.28125,-3376,2.0698957695,6464,3.9632127529,-10528,6.4549356223,-1061,-70,1148,64.6951219512,-1582,96.4634146341,0,0,-54,-0.2347826087,134,-0.6536585366
7100025,11132.8125,-3072,1.8835070509,6064,3.717964439,-11024,6.7590435316,-1061,-70,1148,64.6951219512,-1582,96.4634146341,-3,0.0130434783,-49,-0.2130434783,137,-0.6682926829
7100665,11152.34375,-2480,1.5205395463,4672,2.8645003066,-10368,6.3568362968,-1281,-77.5609756098,1272,78.1097560976,-1365,83.2317073171,-3,0.0130434783,-49,-0.2130434783,140,-0.6829268293
7101305,11171.875,-2160,1.3243408952,3856,2.3641937462,-11088,6.7982832618,-1281,-77.5609756098,1272,78.1097560976,-1365,83.2317073171,-4,0.0173913043,-45,-0.1956521739,144,-0.7024390244
7101945,11191.40625,-2016,1.2360515021,3968,2.4328632741,-12240,7.5045984059,-944,-90.6097560976,1486,57.5609756098,-1295,78.9634146341,-5,0.0217391304,-40,-0.1739130435,142,-0.6926829268
7102585,11210.9375,-1888,1.1575720417,3200,1.9619865113,-12192,7.4751686082,-532,-94.6341463415,1552,32.4390243902,-1244,75.8536585366,-7,0.0304347826,-33,-0.1434782609,143,-0.6975609756
7103225,11230.46875,-2608,1.5990190067,1952,1.1968117719,-10736,6.5824647456,-532,-94.6341463415,1552,32.4390243902,-1244,75.8536585366,-8,0.0347826087,-32,-0.1391304348,144,-0.7024390244
7103865,11250,-3200,1.9619865113,688,0.4218270999,-11296,6.925812385,-496,-105.6097560976,1732,30.243902439,-1206,73.5365853659,-11,0.047826087,-23,-0.1,144,-0.7024390244
7104505,11269.53125,-3136,1.9227467811,32,0.0196198651,-12496,7.6615573268,-475,-109.8780487805,1802,28.9634146341,-1202,73.2926829268,-11,0.047826087,-21,-0.0913043478,144,-0.7024390244
7105145,11289.0625,-3440,2.1091354997,-656,-0.4022072348,-12224,7.4947884733,-475,-109.8780487805,1802,28.9634146341,-1202,73.2926829268,-14,0.0608695652,-15,-0.0652173913,144,-0.7024390244
7105785,11308.59375,-4048,2.4819129368,-1744,-1.0692826487,-10592,6.4941753525,-668,-116.4024390244,1909,40.7317073171,-1028,62.6829268293,-17,0.0739130435,-14,-0.0608695652,145,-0.7073170732
7106425,11328.125,-3872,2.3740036787,-3088,-1.8933169834,-11584,7.1023911711,-668,-116.4024390244,1909,40.7317073171,-1028,62.6829268293,-21,0.0913043478,-6,-0.0260869565,143,-0.6975609756
7107065,11347.65625,-3120,1.9129368486,-3744,-2.2955242183,-13520,8.2893930104,-1006,-130.1219512195,2134,61.3414634146,-962,58.6585365854,-20,0.0869565217,-5,-0.0217391304,142,-0.6926829268
7107705,11367.1875,-2992,1.8344573881,-4256,-2.6094420601,-13104,8.0343347639,-652,-131.5853658537,2158,39.756097561,-718,43.7804878049,-23,0.1,2,0.0086956522,142,-0.6926829268
7108345,11386.71875,-3232,1.9816063765,-5040,-3.0901287554,-10880,6.6707541386,-652,-131.5853658537,2158,39.756097561,-718,43.7804878049,-27,0.1173913043,8,0.0347826087,142,-0.6926829268
7108985,11406.25,-1824,1.1183323115,-7104,-4.3556100552,-12992,7.9656652361,-591,-152.0731707317,2494,36.0365853659,-751,45.7926829268,-28,0.1217391304,10,0.0434782609,140,-0.6829268293
7109625,11425.78125,-1168,0.7161250766,-8528,-5.2286940527,-16400,10.0551808706,-591,-152.0731707317,2494,36.0365853659,-751,45.7926829268,-33,0.1434782609,19,0.0826086957,136,-0.6634146341
7110265,11445.3125,-2288,1.4028203556,-8320,-5.1011649295,-14864,9.1134273452,286,-141.4024390244,2319,-17.4390243902,-597,36.4024390244,-30,0.1304347826,18,0.0782608696,133,-0.6487804878
7110905,11464.84375,-4400,2.6977314531,-8656,-5.3071735132,-10880,6.6707541386,465,-149.3292682927,2449,-28.3536585366,-764,46.5853658537,-31,0.1347826087,25,0.1086956522,130,-0.6341463415
7111545,11484.375,-3728,2.2857142857,-11360,-6.9650521153,-10112,6.1998773758,465,-149.3292682927,2449,-28.3536585366,-764,46.5853658537,-34,0.147826087,31,0.1347826087,126,-0.6146341463
7112185,11503.90625,-1568,0.9613733906,-14784,-9.0643776824,-14000,8.5836909871,-377,-165.487804878,2714,22.987804878,-1072,65.3658536585,-36,0.1565217391,30,0.1304347826,124,-0.6048780488
7112825,11523.4375,-816,0.5003065604,-14976,-9.1820968731,-13600,8.3384426732,192,-152.5609756098,2502,-11.7073170732,-942,57.4390243902,-40,0.1739130435,34,0.147826087,119,-0.5804878049
7113465,11542.96875,-2448,1.5009196812,-14272,-8.7504598406,-10368,6.3568362968,192,-152.5609756098,2502,-11.7073170732,-942,57.4390243902,-39,0.1695652174,39,0.1695652174,117,-0.5707317073
7114105,11562.5,-3168,1.9423666462,-15552,-9.5352544451,-10480,6.4255058246,49,-170.3048780488,2793,-2.987804878,-517,31.5243902439,-38,0.1652173913,44,0.1913043478,115,-0.5609756098
7114745,11582.03125,-2368,1.4518700184,-17408,-10.6732066217,-13920,8.5346413243,49,-170.3048780488,2793,-2.987804878,-517,31.5243902439,-41,0.1782608696,43,0.1869565217,108,-0.5268292683
7115385,11601.5625,-2160,1.3243408952,-17312,-10.6143470264,-14832,9.0938074801,-393,-154.6341463415,2536,23.9634146341,183,-11.1585365854,-41,0.1782608696,45,0.1956521739,104,-0.5073170732
7116025,11621.09375,-3904,2.3936235438,-16784,-10.290619252,-12416,7.612507664,-775,-149.8170731707,2457,47.256097561,584,-35.6097560976,-45,0.1956521739,50,0.2173913043,98,-0.4780487805
7116665,11640.625,-4000,2.4524831392,-18160,-11.1342734519,-11472,7.0337216432,-775,-149.8170731707,2457,47.256097561,584,-35.6097560976,-41,0.1782608696,46,0.2,98,-0.4780487805
7117305,11660.15625,-2624,1.6088289393,-20688,-12.6842427958,-13024,7.9852851012,-2244,-142.1951219512,2332,136.8292682927,706,-43.0487804878,-43,0.1869565217,47,0.2043478261,95,-0.4634146341
7117945,11679.6875,-1712,1.0496627836,-22128,-13.5671367259,-13776,8.4463519313,-2244,-142.1951219512,2332,136.8292682927,706,-43.0487804878,-42,0.1826086957,51,0.2217391304,91,-0.443902439
7118585,11699.21875,-1520,0.9319435929,-21840,-13.3905579399,-12688,7.7792765175,-2511,-106.2804878049,1743,153.1097560976,1093,-66.6463414634,-41,0.1782608696,49,0.2130434783,92,-0.4487804878
7119225,11718.75,-1392,0.8534641324,-21312,-13.0668301655,-11552,7.0827713059,-2403,-85,1394,146.5243902439,1519,-92.6219512195,-42,0.1826086957,48,0.2086956522,91,-0.443902439
7119865,11738.28125,-912,0.5591661557,-21824,-13.3807480074,-11536,7.0729613734,-2403,-85,1394,146.5243902439,1519,-92.6219512195,-41,0.1782608696,49,0.2130434783,91,-0.443902439
7120505,11757.8125,-800,0.4904966278,-22064,-13.5278969957,-13488,8.2697731453,-2264,-60.6097560976,994,138.0487804878,1849,-112.743902439,-38,0.1652173913,48,0.2086956522,92,-0.4487804878
7121145,11777.34375,-1424,0.8730839975,-21872,-13.410177805,-14608,8.9564684243,-1879,-27.3780487805,449,114.5731707317,2261,-137.8658536585,-35,0.152173913,45,0.1956521739,93,-0.4536585366
7121785,11796.875,-2768,1.6971183323,-21712,-13.3120784795,-13424,8.2305334151,-1879,-27.3780487805,449,114.5731707317,2261,-137.8658536585,-35,0.152173913,45,0.1956521739,93,-0.4536585366
7122425,11816.40625,-2992,1.8344573881,-22208,-13.6161863887,-13888,8.5150214592,-2151,-9.8170731707,161,131.1585365854,2573,-156.8902439024,-30,0.1304347826,40,0.1739130435,96,-0.4682926829
7123065,11835.9375,-2128,1.30472103,-23008,-14.1066830166,-15424,9.4567749847,-2151,-9.8170731707,161,131.1585365854,2573,-156.8902439024,-26,0.1130434783,37,0.1608695652,97,-0.4731707317
7123705,11855.46875,-1872,1.1477621091,-23584,-14.4598405886,-15872,9.7314530963,-2194,18.0487804878,-296,133.7804878049,2953,-180.0609756098,-22,0.0956521739,33,0.1434782609,100,-0.487804878
7124345,11875,-1888,1.1575720417,-22928,-14.0576333538,-15232,9.339055794,-2104,42.5609756098,-698,128.2926829268,3113,-189.8170731707,-20,0.0869565217,36,0.1565217391,103,-0.5024390244
7124985,11894.53125,-544,0.3335377069,-22848,-14.008583691,-16672,10.2219497241,-2104,42.5609756098,-698,128.2926829268,3113,-189.8170731707,-16,0.0695652174,29,0.1260869565,109,-0.5317073171
7125625,11914.0625,192,-0.1177191907,-23328,-14.3028816677,-17296,10.6045370938,-1863,68.6585365854,-1126,113.5975609756,3173,-193.4756097561,-14,0.0608695652,22,0.0956521739,112,-0.5463414634
7126265,11933.59375,-384,0.2354383814,-23440,-14.3715511956,-16880,10.3494788473,-1863,68.6585365854,-1126,113.5975609756,3173,-193.4756097561,-11,0.047826087,20,0.0869565217,115,-0.5609756098
7126905,11953.125,-96,0.0588595953,-23008,-14.1066830166,-16992,10.4181483752,-1669,92.5609756098,-1518,101.7682926829,3162,-192.8048780488,-10,0.0434782609,14,0.0608695652,121,-0.5902439024
7127545,11972.65625,240,-0.1471489884,-22752,-13.9497240956,-17088,10.4770079706,-1906,121.0975609756,-1986,116.2195121951,2916,-177.8048780488,-9,0.0391304348,10,0.0434782609,126,-0.6146341463
7128185,11992.1875,768,-0.4708767627,-22000,-13.4886572655,-16416,10.0649908032,-1906,121.0975609756,-1986,116.2195121951,2916,-177.8048780488,-10,0.0434782609,-4,-0.0173913043,131,-0.6390243902
7128825,12011.71875,928,-0.5689760883,-21216,-13.0079705702,-15696,9.6235438381,-2057,144.0853658537,-2363,125.4268292683,2613,-159.3292682927,-9,0.0391304348,-11,-0.047826087,139,-0.6780487805
7129465,12031.25,1648,-1.0104230533,-20144,-12.3507050889,-15104,9.2605763335,-2057,144.0853658537,-2363,125.4268292683,2613,-159.3292682927,-9,0.0391304348,-15,-0.0652173913,139,-0.6780487805
7130105,12050.78125,2816,-1.72654813,-18544,-11.3697118332,-14864,9.1134273452,-2165,162.987804878,-2673,132.012195122,2130,-129.8780487805,-12,0.052173913,-23,-0.1,145,-0.7073170732
7130745,12070.3125,3600,-2.2072348253,-17056,-10.4573881055,-14624,8.9662783568,-1784,172.5609756098,-2830,108.7804878049,1759,-107.256097561,-14,0.0608695652,-25,-0.1086956522,148,-0.7219512195
7131385,12089.84375,3440,-2.1091354997,-16000,-9.8099325567,-14208,8.7112201104,-1784,172.5609756098,-2830,108.7804878049,1759,-107.256097561,-17,0.0739130435,-40,-0.1739130435,153,-0.7463414634
7132025,12109.375,3216,-1.9717964439,-14992,-9.1919068056,-13648,8.3678724709,-1664,176.4634146341,-2894,101.4634146341,1406,-85.7317073171,-18,0.0782608696,-41,-0.1782608696,154,-0.7512195122
7132665,12128.90625,2848,-1.7461679951,-13872,-8.5052115267,-13344,8.1814837523,-1843,181.3414634146,-2974,112.3780487805,992,-60.487804878,-21,0.0913043478,-53,-0.2304347826,157,-0.7658536585
7133305,12148.4375,3056,-1.8736971183,-12464,-7.6419374617,-13088,8.0245248314,-1843,181.3414634146,-2974,112.3780487805,992,-60.487804878,-27,0.1173913043,-59,-0.2565217391,158,-0.7707317073
7133945,12167.96875,3712,-2.2759043532,-10912,-6.6903740037,-12768,7.8283261803,-1860,181.7682926829,-2981,113.4146341463,583,-35.5487804878,-31,0.1347826087,-69,-0.3,159,-0.7756097561
7134585,12187.5,4160,-2.5505824647,-9456,-5.797670141,-12752,7.8185162477,-1860,181.7682926829,-2981,113.4146341463,583,-35.5487804878,-31,0.1347826087,-72,-0.3130434783,157,-0.7658536585
7135225,12207.03125,4032,-2.4721030043,-8016,-4.9147762109,-13184,8.0833844267,-1545,178.8414634146,-2933,94.2073170732,225,-13.7195121951,-35,0.152173913,-80,-0.347826087,158,-0.7707317073
7135865,12226.5625,3840,-2.3543838136,-6736,-4.1299816064,-13376,8.2011036174,-1251,173.6585365854,-2848,76.2804878049,-79,4.8170731707,-40,0.1739130435,-79,-0.3434782609,156,-0.7609756098
7136505,12246.09375,3792,-2.3249540159,-5680,-3.4825260576,-13440,8.2403433476,-1251,173.6585365854,-2848,76.2804878049,-79,4.8170731707,-41,0.1782608696,-85,-0.3695652174,155,-0.756097561
7137145,12265.625,3952,-2.4230533415,-4576,-2.8056407112,-12384,7.5928877989,-1195,169.6951219512,-2783,72.8658536585,-371,22.6219512195,-40,0.1739130435,-95,-0.4130434783,152,-0.7414634146
7137785,12285.15625,3536,-2.167995095,-3440,-2.1091354997,-11504,7.0533415083,-1195,169.6951219512,-2783,72.8658536585,-371,22.6219512195,-41,0.1782608696,-102,-0.4434782609,150,-0.7317073171
7138425,12304.6875,3232,-1.9816063765,-2064,-1.2654812998,-10864,6.660944206,-1244,162.1341463415,-2659,75.8536585366,-639,38.9634146341,-44,0.1913043478,-102,-0.4434782609,149,-0.7268292683
7139065,12324.21875,3648,-2.2366646229,-800,-0.4904966278,-10848,6.6511342735,-1402,153.7195121951,-2521,85.487804878,-895,54.5731707317,-46,0.2,-105,-0.4565217391,144,-0.7024390244
7139705,12343.75,4560,-2.7958307787,496,0.3041079093,-10416,6.3862660944,-1402,153.7195121951,-2521,85.487804878,-895,54.5731707317,-44,0.1913043478,-113,-0.4913043478,142,-0.6926829268
7140345,12363.28125,5600,-3.4334763948,1744,1.0692826487,-10176,6.2391171061,-1264,139.6951219512,-2291,77.0731707317,-1052,64.1463414634,-44,0.1913043478,-118,-0.5130434783,139,-0.6780487805
7140985,12382.8125,6400,-3.9239730227,2640,1.6186388719,-10176,6.2391171061,-999,125.3048780488,-2055,60.9146341463,-1188,72.4390243902,-45,0.1956521739,-116,-0.5043478261,137,-0.6682926829
7141625,12402.34375,6400,-3.9239730227,3440,2.1091354997,-10416,6.3862660944,-999,125.3048780488,-2055,60.9146341463,-1188,72.4390243902,-45,0.1956521739,-118,-0.5130434783,131,-0.6390243902
7142265,12421.875,6128,-3.7572041692,4320,2.6486817903,-10064,6.1704475782,-949,115.7926829268,-1899,57.8658536585,-1368,83.4146341463,-41,0.1782608696,-122,-0.5304347826,132,-0.643902439
7142905,12441.40625,6400,-3.9239730227,4832,2.9625996321,-9056,5.5524218271,-949,115.7926829268,-1899,57.8658536585,-1368,83.4146341463,-39,0.1695652174,-124,-0.5391304348,127,-0.6195121951
7143545,12460.9375,6464,-3.9632127529,5120,3.1391784181,-8304,5.0913549969,-990,107.1341463415,-1757,60.3658536585,-1671,101.8902439024,-39,0.1695652174,-121,-0.5260869565,124,-0.6048780488
7144185,12480.46875,6080,-3.7277743716,5632,3.45309626,-7792,4.7774371551,-740,95.6097560976,-1568,45.1219512195,-1923,117.256097561,-35,0.152173913,-120,-0.5217391304,121,-0.5902439024
7144825,12500,5600,-3.4334763948,6320,3.8749233599,-7072,4.3359901901,-740,95.6097560976,-1568,45.1219512195,-1923,117.256097561,-31,0.1347826087,-124,-0.5391304348,121,-0.5902439024
7145465,12519.53125,4880,-2.9920294298,6960,4.2673206622,-6080,3.7277743716,-656,81.4024390244,-1335,40,-2139,130.4268292683,-27,0.1173913043,-121,-0.5260869565,117,-0.5707317073
7146105,12539.0625,3888,-2.3838136113,7424,4.5518087063,-5392,3.3059472716,-656,81.4024390244,-1335,40,-2139,130.4268292683,-23,0.1,-121,-0.5260869565,117,-0.5707317073
7146745,12558.59375,2768,-1.6971183323,7920,4.8559166156,-5136,3.1489883507,-722,65.0609756098,-1067,44.0243902439,-2331,142.1341463415,-22,0.0956521739,-114,-0.4956521739,114,-0.556097561
7147385,12578.125,1792,-1.0987124464,8448,5.1796443899,-5056,3.0999386879,-1037,49.3292682927,-809,63.2317073171,-2489,151.7682926829,-18,0.0782608696,-120,-0.5217391304,115,-0.5609756098
7148025,12597.65625,1440,-0.8828939301,8928,5.4739423666,-4720,2.8939301042,-1037,49.3292682927,-809,63.2317073171,-2489,151.7682926829,-18,0.0782608696,-112,-0.4869565217,114,-0.556097561
7148665,12617.1875,1344,-0.8240343348,9088,5.5720416922,-4640,2.8448804414,-1229,30.3658536585,-498,74.9390243902,-2644,161.2195121951,-12,0.052173913,-110,-0.4782608696,114,-0.556097561
7149305,12636.71875,896,-0.5493562232,9344,5.7290006131,-5088,3.119558553,-986,12.9268292683,-212,60.1219512195,-2727,166.2804878049,-10,0.0434782609,-109,-0.4739130435,114,-0.556097561
7149945,12656.25,192,-0.1177191907,9536,5.8467198038,-5296,3.2470876763,-986,12.9268292683,-212,60.1219512195,-2727,166.2804878049,-6,0.0260869565,-102,-0.4434782609,115,-0.5609756098
7150585,12675.78125,-336,0.2060085837,9328,5.7191906806,-5504,3.3746167995,-592,-5.5487804878,91,36.0975609756,-2605,158.8414634146,-5,0.0217391304,-98,-0.4260869565,116,-0.5658536585
7151225,12695.3125,-832,0.5101164929,9104,5.5818516248,-5808,3.5610055181,-592,-5.5487804878,91,36.0975609756,-2605,158.8414634146,2,-0.0086956522,-99,-0.4304347826,117,-0.5707317073
7151865,12714.84375,-2016,1.2360515021,8928,5.4739423666,-5744,3.5217657879,-366,-16.9512195122,278,22.3170731707,-2541,154.9390243902,3,-0.0130434783,-91,-0.3956521739,118,-0.5756097561
7152505,12734.375,-3616,2.2170447578,8944,5.4837522992,-5536,3.3942366646,-625,-28.5365853659,468,38.1097560976,-2366,144.2682926829,5,-0.0217391304,-83,-0.3608695652,120,-0.5853658537
7153145,12753.90625,-3696,2.2660944206,8528,5.2286940527,-5440,3.3353770693,-625,-28.5365853659,468,38.1097560976,-2366,144.2682926829,7,-0.0304347826,-81,-0.352173913,121,-0.5902439024
7153785,12773.4375,-3536,2.167995095,8016,4.9147762109,-6208,3.806253832,-801,-40.9146341463,671,48.8414634146,-2269,138.3536585366,9,-0.0391304348,-76,-0.3304347826,123,-0.6
7154425,12792.96875,-4448,2.7271612508,8000,4.9049662784,-6768,4.1496014715,-801,-40.9146341463,671,48.8414634146,-2269,138.3536585366,9,-0.0391304348,-73,-0.3173913043,123,-0.6
7155065,12812.5,-5248,3.2176578786,7936,4.8657265481,-6400,3.9239730227,-942,-50.9756097561,836,57.4390243902,-2201,134.2073170732,7,-0.0304347826,-63,-0.2739130435,125,-0.6097560976
7155705,12832.03125,-5008,3.0705088903,7312,4.4831391784,-5680,3.4825260576,-1432,-70.3658536585,1154,87.3170731707,-1944,118.5365853659,8,-0.0347826087,-60,-0.2608695652,130,-0.6341463415
7156345,12851.5625,-4848,2.9724095647,6272,3.8454935622,-5824,3.5708154506,-1432,-70.3658536585,1154,87.3170731707,-1944,118.5365853659,7,-0.0304347826,-58,-0.252173913,133,-0.6487804878
7156985,12871.09375,-5024,3.0803188228,5856,3.5904353158,-6960,4.2673206622,-1418,-88.6585365854,1454,86.4634146341,-1831,111.6463414634,3,-0.0130434783,-51,-0.2217391304,132,-0.643902439
7157625,12890.625,-4032,2.4721030043,5616,3.4432863274,-8368,5.1305947272,-1418,-88.6585365854,1454,86.4634146341,-1831,111.6463414634,4,-0.0173913043,-44,-0.1913043478,137,-0.6682926829
7158265,12910.15625,-3776,2.3151440834,4608,2.8252605763,-7952,4.8755364807,-1117,-103.5365853659,1698,68.1097560976,-1649,100.5487804878,1,-0.0043478261,-43,-0.1869565217,138,-0.6731707317
7158905,12929.6875,-5232,3.207847946,3104,1.903126916,-7952,4.8755364807,-683,-123.2317073171,2021,41.6463414634,-1383,84.3292682927,-5,0.0217391304,-37,-0.1608695652,139,-0.6780487805
7159545,12949.21875,-5744,3.5217657879,2192,1.3439607603,-9104,5.5818516248,-683,-123.2317073171,2021,41.6463414634,-1383,84.3292682927,-1,0.0043478261,-30,-0.1304347826,139,-0.6780487805
7160185,12968.75,-4496,2.7565910484,1632,1.0006131208,-10064,6.1704475782,-580,-137.1341463415,2249,35.3658536585,-1432,87.3170731707,-4,0.0173913043,-24,-0.1043478261,139,-0.6780487805
7160825,12988.28125,-4064,2.4917228694,448,0.2746781116,-9776,5.9938687922,55,-154.1463414634,2528,-3.3536585366,-1104,67.3170731707,-8,0.0347826087,-16,-0.0695652174,139,-0.6780487805
7161465,13007.8125,-5392,3.3059472716,-1936,-1.1870018394,-8640,5.2973635806,55,-154.1463414634,2528,-3.3536585366,-1104,67.3170731707,-10,0.0434782609,-8,-0.0347826087,137,-0.6682926829
7162105,13027.34375,-6640,4.071122011,-4176,-2.5603923973,-10336,6.3372164316,130,-166.4634146341,2730,-7.9268292683,-1133,69.0853658537,-7,0.0304347826,-10,-0.0434782609,137,-0.6682926829
7162745,13046.875,-6208,3.806253832,-4864,-2.9822194972,-13248,8.122624157,130,-166.4634146341,2730,-7.9268292683,-1133,69.0853658537,-11,0.047826087,-2,-0.0086956522,134,-0.6536585366
7163385,13066.40625,-6192,3.7964438994,-4752,-2.9135499693,-12560,7.700797057,71,-160.243902439,2628,-4.3292682927,-1136,69.2682926829,-11,0.047826087,1,0.0043478261,133,-0.6487804878
7164025,13085.9375,-7328,4.492949111,-5904,-3.6198651134,-11200,6.8669527897,-32,-166.7073170732,2734,1.9512195122,-797,48.5975609756,-13,0.0565217391,12,0.052173913,130,-0.6341463415
7164665,13105.46875,-7328,4.492949111,-7872,-4.8264868179,-12208,7.4849785408,-32,-166.7073170732,2734,1.9512195122,-797,48.5975609756,-14,0.0608695652,10,0.0434782609,128,-0.6243902439
7165305,13125,-6112,3.7473942367,-9024,-5.532801962,-15648,9.5941140405,-482,-167.8658536585,2753,29.3902439024,-827,50.4268292683,-18,0.0782608696,20,0.0869565217,124,-0.6048780488
7165945,13144.53125,-5264,3.2274678112,-9216,-5.6505211527,-15680,9.6137339056,-482,-167.8658536585,2753,29.3902439024,-827,50.4268292683,-19,0.0826086957,22,0.0956521739,123,-0.6
7166585,13164.0625,-6272,3.8454935622,-10528,-6.4549356223,-11952,7.3280196199,-339,-160.1829268293,2627,20.6707317073,-745,45.4268292683,-22,0.0956521739,27,0.1173913043,119,-0.5804878049
7167225,13183.59375,-6400,3.9239730227,-12480,-7.6517473942,-10192,6.2489270386,-1155,-173.5365853659,2846,70.4268292683,-755,46.0365853659,-23,0.1,27,0.1173913043,119,-0.5804878049
7167865,13203.125,-4448,2.7271612508,-14528,-8.9074187615,-13664,8.3776824034,-1155,-173.5365853659,2846,70.4268292683,-755,46.0365853659,-27,0.1173913043,31,0.1347826087,116,-0.5658536585
7168505,13222.65625,-3104,1.903126916,-14416,-8.8387492336,-14576,8.9368485592,-1025,-159.4512195122,2615,62.5,-320,19.512195122,-30,0.1304347826,35,0.152173913,112,-0.5463414634
7169145,13242.1875,-3248,1.991416309,-14384,-8.8191293685,-11728,7.1906805641,-412,-170.5487804878,2797,25.1219512195,88,-5.3658536585,-32,0.1391304348,42,0.1826086957,107,-0.5219512195
7169785,13261.71875,-4448,2.7271612508,-16256,-9.9668914776,-9728,5.9644389945,-412,-170.5487804878,2797,25.1219512195,88,-5.3658536585,-30,0.1304347826,39,0.1695652174,108,-0.5268292683
7170425,13281.25,-4304,2.6388718578,-19120,-11.7228694053,-12512,7.6713672594,-1175,-167.8048780488,2752,71.6463414634,195,-11.8902439024,-34,0.147826087,44,0.1913043478,101,-0.4926829268
7171065,13300.78125,-3808,2.3347639485,-19248,-11.8013488657,-15232,9.339055794,-1175,-167.8048780488,2752,71.6463414634,195,-11.8902439024,-32,0.1391304348,45,0.1956521739,100,-0.487804878
7171705,13320.3125,-3616,2.2170447578,-18752,-11.4972409565,-14544,8.9172286941,-1251,-142.5609756098,2338,76.2804878049,602,-36.7073170732,-34,0.147826087,45,0.1956521739,96,-0.4682926829
7172345,13339.84375,-4832,2.9625996321,-19408,-11.8994481913,-12192,7.4751686082,-1641,-137.8658536585,2261,100.0609756098,1030,-62.8048780488,-34,0.147826087,45,0.1956521739,96,-0.4682926829
7172985,13359.375,-5232,3.207847946,-20848,-12.7823421214,-12224,7.4947884733,-1641,-137.8658536585,2261,100.0609756098,1030,-62.8048780488,-35,0.152173913,45,0.1956521739,93,-0.4536585366
7173625,13378.90625,-4192,2.5702023299,-21472,-13.1649294911,-13760,8.4365419988,-2703,-115.0609756098,1887,164.8170731707,1146,-69.8780487805,-35,0.152173913,50,0.2173913043,92,-0.4487804878
7174265,13398.4375,-2928,1.7952176579,-21440,-13.145309626,-14672,8.9957081545,-2703,-115.0609756098,1887,164.8170731707,1146,-69.8780487805,-33,0.1434782609,44,0.1913043478,93,-0.4536585366
7174905,13417.96875,-2624,1.6088289393,-21216,-13.0079705702,-14064,8.6229307174,-2744,-85.7317073171,1406,167.3170731707,1563,-95.3048780488,-33,0.1434782609,47,0.2043478261,92,-0.4487804878
7175545,13437.5,-2272,1.3930104231,-21232,-13.0177805028,-14096,8.6425505825,-2404,-65.6097560976,1076,146.5853658537,1926,-117.4390243902,-30,0.1304347826,40,0.1739130435,96,-0.4682926829
7176185,13457.03125,-2112,1.2949110975,-21408,-13.1256897609,-14992,9.1919068056,-2404,-65.6097560976,1076,146.5853658537,1926,-117.4390243902,-27,0.1173913043,39,0.1695652174,95,-0.4634146341
7176825,13476.5625,-2368,1.4518700184,-21872,-13.410177805,-15216,9.3292458614,-1890,-41.8902439024,687,115.243902439,2402,-146.4634146341,-23,0.1,38,0.1652173913,97,-0.4731707317
7177465,13496.09375,-3552,2.1778050276,-21968,-13.4690374004,-14784,9.0643776824,-1890,-41.8902439024,687,115.243902439,2402,-146.4634146341,-22,0.0956521739,41,0.1782608696,99,-0.4829268293
7178105,13515.625,-3344,2.0502759044,-21504,-13.1845493562,-14800,9.074187615,-1924,-21.4024390244,351,117.3170731707,2754,-167.9268292683,-20,0.0869565217,34,0.147826087,101,-0.4926829268
7178745,13535.15625,-1712,1.0496627836,-21488,-13.1747394237,-15632,9.5843041079,-2025,-4.3902439024,72,123.4756097561,2908,-177.3170731707,-16,0.0695652174,33,0.1434782609,102,-0.4975609756
7179385,13554.6875,-832,0.5101164929,-21888,-13.4199877376,-15888,9.7412630288,-2025,-4.3902439024,72,123.4756097561,2908,-177.3170731707,-12,0.052173913,24,0.1043478261,108,-0.5268292683
7180025,13574.21875,-1680,1.0300429185,-21424,-13.1354996934,-15120,9.2703862661,-1528,16.5243902439,-271,93.1707317073,3153,-192.256097561,-11,0.047826087,23,0.1,109,-0.5317073171
7180665,13593.75,-1808,1.1085223789,-20848,-12.7823421214,-15632,9.5843041079,-1571,34.756097561,-570,95.7926829268,2969,-181.0365853659,-8,0.0347826087,17,0.0739130435,111,-0.5414634146
7181305,13613.28125,-1296,0.7946045371,-20560,-12.6057633354,-16832,10.3200490497,-1571,34.756097561,-570,95.7926829268,2969,-181.0365853659,-5,0.0217391304,13,0.0565217391,114,-0.556097561
7181945,13632.8125,-1488,0.9123237278,-20464,-12.54690374,-16672,10.2219497241,-1553,60.5487804878,-993,94.6951219512,2967,-180.9146341463,-5,0.0217391304,10,0.0434782609,117,-0.5707317073
7182585,13652.34375,-1200,0.7357449418,-19984,-12.2526057633,-16800,10.3004291845,-1553,60.5487804878,-993,94.6951219512,2967,-180.9146341463,-2,0.0086956522,3,0.0130434783,122,-0.5951219512
7183225,13671.875,-784,0.4806866953,-19216,-11.7817290006,-17072,10.467198038,-1656,82.5609756098,-1354,100.9756097561,2694,-164.2682926829,-2,0.0086956522,-4,-0.0173913043,126,-0.6146341463
7183865,13691.40625,-336,0.2060085837,-18512,-11.3500919681,-16608,10.1827099939,-1518,103.9024390244,-1704,92.5609756098,2512,-153.1707317073,-3,0.0130434783,-9,-0.0391304348,131,-0.6390243902
7184505,13710.9375,-352,0.2158185162,-17760,-10.889025138,-16400,10.0551808706,-1518,103.9024390244,-1704,92.5609756098,2512,-153.1707317073,-4,0.0173913043,-13,-0.0565217391,131,-0.6390243902
7185145,13730.46875,-1072,0.6572654813,-16912,-10.3690987124,-16928,10.378908645,-1598,124.6951219512,-2045,97.4390243902,2166,-132.0731707317,-3,0.0130434783,-22,-0.0956521739,136,-0.6634146341
7185785,13750,-1488,0.9123237278,-15696,-9.6235438381,-16576,10.1630901288,-1598,124.6951219512,-2045,97.4390243902,2166,-132.0731707317,-3,0.0130434783,-29,-0.1260869565,140,-0.6829268293
7186425,13769.53125,-704,0.4316370325,-14400,-8.828939301,-16080,9.8589822195,-2205,148.2317073171,-2431,134.4512195122,1656,-100.9756097561,-9,0.0391304348,-35,-0.152173913,144,-0.7024390244
7187065,13789.0625,800,-0.4904966278,-13312,-8.1618638872,-15168,9.2998160638,-2473,163.7195121951,-2685,150.7926829268,1237,-75.4268292683,-10,0.0434782609,-40,-0.1739130435,147,-0.7170731707
7187705,13808.59375,2192,-1.3439607603,-12416,-7.612507664,-14624,8.9662783568,-2473,163.7195121951,-2685,150.7926829268,1237,-75.4268292683,-18,0.0782608696,-47,-0.2043478261,151,-0.7365853659
7188345,13828.125,2544,-1.5597792765,-11520,-7.0631514408,-14800,9.074187615,-1975,170.1829268293,-2791,120.4268292683,970,-59.1463414634,-20,0.0869565217,-54,-0.2347826087,154,-0.7512195122
7188985,13847.65625,2512,-1.5401594114,-10272,-6.2979767014,-14576,8.9368485592,-1524,173.7195121951,-2849,92.9268292683,886,-54.0243902439,-24,0.1043478261,-64,-0.2782608696,156,-0.7609756098
7189625,13867.1875,2192,-1.3439607603,-9264,-5.6799509503,-14624,8.9662783568,-1524,173.7195121951,-2849,92.9268292683,886,-54.0243902439,-27,0.1173913043,-67,-0.2913043478,155,-0.756097561
7190265,13886.71875,2368,-1.4518700184,-7792,-4.7774371551,-14016,8.5935009197,-1436,173.4146341463,-2844,87.5609756098,714,-43.5365853659,-28,0.1217391304,-78,-0.3391304348,155,-0.756097561
7190905,13906.25,2720,-1.6676885346,-6592,-4.0416922134,-13504,8.2795830779,-1436,173.4146341463,-2844,87.5609756098,714,-43.5365853659,-31,0.1347826087,-80,-0.347826087,156,-0.7609756098
7191545,13925.78125,2752,-1.6873083998,-5424,-3.3255671367,-13216,8.1030042918,-1374,169.1463414634,-2774,83.7804878049,411,-25.0609756098,-34,0.147826087,-85,-0.3695652174,154,-0.7512195122
7192185,13945.3125,2960,-1.814837523,-4400,-2.6977314531,-12896,7.9068056407,-1296,164.0243902439,-2690,79.0243902439,116,-7.0731707317,-37,0.1608695652,-93,-0.4043478261,152,-0.7414634146
7192825,13964.84375,3248,-1.991416309,-3184,-1.9521765788,-12592,7.7204169221,-1296,164.0243902439,-2690,79.0243902439,116,-7.0731707317,-39,0.1695652174,-95,-0.4130434783,149,-0.7268292683
7193465,13984.375,3280,-2.0110361741,-1984,-1.216431637,-11824,7.2495401594,-1221,157.5,-2583,74.4512195122,-157,9.5731707317,-40,0.1739130435,-100,-0.4347826087,149,-0.7268292683
7194105,14003.90625,3120,-1.9129368486,-1488,-0.9123237278,-11472,7.0337216432,-1221,157.5,-2583,74.4512195122,-157,9.5731707317,-42,0.1826086957,-105,-0.4565217391,145,-0.7073170732
7194745,14023.4375,3168,-1.9423666462,-336,-0.2060085837,-11056,6.7786633967,-1162,147.0731707317,-2412,70.8536585366,-346,21.0975609756,-41,0.1782608696,-111,-0.4826086957,143,-0.6975609756
7195385,14042.96875,3440,-2.1091354997,928,0.5689760883,-10800,6.6217044758,-1135,137.012195122,-2247,69.2073170732,-582,35.487804878,-43,0.1869565217,-113,-0.4913043478,138,-0.6731707317
7196025,14062.5,3728,-2.2857142857,2256,1.3832004905,-10464,6.4156958921,-1135,137.012195122,-2247,69.2073170732,-582,35.487804878,-43,0.1869565217,-115,-0.5,137,-0.6682926829
7196665,14082.03125,4224,-2.589822195,3232,1.9816063765,-10464,6.4156958921,-1076,125.1219512195,-2052,65.6097560976,-792,48.2926829268,-42,0.1826086957,-119,-0.5173913043,132,-0.643902439
7197305,14101.5625,4272,-2.6192519926,3808,2.3347639485,-10400,6.3764561619,-1048,116.0975609756,-1904,63.9024390244,-937,57.1341463415,-42,0.1826086957,-122,-0.5304347826,132,-0.643902439
7197945,14121.09375,4160,-2.5505824647,4592,2.8154506438,-9760,5.9840588596,-1048,116.0975609756,-1904,63.9024390244,-937,57.1341463415,-40,0.1739130435,-125,-0.5434782609,129,-0.6292682927
7198585,14140.625,4240,-2.5996321275,5536,3.3942366646,-9744,5.974248927,-1080,106.4024390244,-1745,65.8536585366,-1149,70.0609756098,-40,0.1739130435,-122,-0.5304347826,126,-0.6146341463
7199225,14160.15625,5472,-3.3549969344,6256,3.8356836297,-9840,6.0331085224,-1080,106.4024390244,-1745,65.8536585366,-1149,70.0609756098,-38,0.1652173913,-123,-0.5347826087,121,-0.5902439024
7199865,14179.6875,6080,-3.7277743716,6720,4.1201716738,-9616,5.8957694666,-797,96.8902439024,-1589,48.5975609756,-1374,83.7804878049,-39,0.1695652174,-125,-0.5434782609,121,-0.5902439024
7200505,14199.21875,5120,-3.1391784181,7136,4.3752299203,-9328,5.7191906806,-248,85.8536585366,-1408,15.1219512195,-1483,90.4268292683,-34,0.147826087,-128,-0.5565217391,118,-0.5756097561
7201145,14218.75,3744,-2.2955242183,7664,4.6989576947,-8896,5.4543225015,-248,85.8536585366,-1408,15.1219512195,-1483,90.4268292683,-30,0.1304347826,-127,-0.552173913,118,-0.5756097561
7201785,14238.28125,2992,-1.8344573881,8064,4.9442060086,-8320,5.1011649295,-305,77.6829268293,-1274,18.5975609756,-1574,95.9756097561,-28,0.1217391304,-127,-0.552173913,111,-0.5414634146
7202425,14257.8125,2544,-1.5597792765,8320,5.1011649295,-7920,4.8559166156,-305,77.6829268293,-1274,18.5975609756,-1574,95.9756097561,-27,0.1173913043,-126,-0.547826087,111,-0.5414634146
7203065,14277.34375,2000,-1.2262415696,8912,5.4641324341,-7600,4.6597179644,-529,69.9390243902,-1147,32.256097561,-1698,103.5365853659,-23,0.1,-125,-0.5434782609,109,-0.5317073171
7203705,14296.875,1424,-0.8730839975,9424,5.7780502759,-7088,4.3458001226,-850,59.0853658537,-969,51.8292682927,-1807,110.1829268293,-19,0.0826086957,-127,-0.552173913,108,-0.5268292683
7204345,14316.40625,1264,-0.774984672,9808,6.0134886573,-6432,3.9435928878,-850,59.0853658537,-969,51.8292682927,-1807,110.1829268293,-20,0.0869565217,-118,-0.5130434783,106,-0.5170731707
7204985,14335.9375,1440,-0.8828939301,10064,6.1704475782,-6880,4.2182709994,-888,44.8170731707,-735,54.1463414634,-1864,113.6585365854,-16,0.0695652174,-118,-0.5130434783,107,-0.5219512195
7205625,14355.46875,1440,-0.8828939301,10640,6.5236051502,-7200,4.4144696505,-888,44.8170731707,-735,54.1463414634,-1864,113.6585365854,-13,0.0565217391,-117,-0.5086956522,106,-0.5170731707
7206265,14375,704,-0.4316370325,10848,6.6511342735,-6832,4.1888412017,-652,35.9756097561,-590,39.756097561,-1874,114.2682926829,-8,0.0347826087,-119,-0.5173913043,107,-0.5219512195
7206905,14394.53125,-336,0.2060085837,10832,6.6413243409,-6224,3.8160637646,-635,27.012195122,-443,38.7195121951,-1816,110.7317073171,-6,0.0260869565,-111,-0.4826086957,106,-0.5170731707
7207545,14414.0625,-624,0.3825873697,11200,6.8669527897,-6288,3.8553034948,-635,27.012195122,-443,38.7195121951,-1816,110.7317073171,-6,0.0260869565,-110,-0.4782608696,106,-0.5170731707
7208185,14433.59375,-304,0.1863887186,11520,7.0631514408,-6704,4.1103617413,-733,17.8048780488,-292,44.6951219512,-1843,112.3780487805,-2,0.0086956522,-107,-0.4652173913,106,-0.5170731707
7208825,14453.125,-608,0.3727774372,11504,7.0533415083,-6688,4.1005518087,-689,8.9024390244,-146,42.012195122,-1926,117.4390243902,1,-0.0043478261,-108,-0.4695652174,109,-0.5317073171
7209465,14472.65625,-1296,0.7946045371,11152,6.837522992,-6384,3.9141630901,-689,8.9024390244,-146,42.012195122,-1926,117.4390243902,5,-0.0217391304,-104,-0.452173913,110,-0.5365853659
7210105,14492.1875,-768,0.4708767627,10800,6.6217044758,-6176,3.7866339669,-865,-4.8170731707,79,52.743902439,-1978,120.6097560976,5,-0.0217391304,-98,-0.4260869565,108,-0.5268292683
7210745,14511.71875,-288,0.176578786,10592,6.4941753525,-6704,4.1103617413,-865,-4.8170731707,79,52.743902439,-1978,120.6097560976,8,-0.0347826087,-93,-0.4043478261,110,-0.5365853659
7211385,14531.25,-960,0.5885959534,10224,6.2685469037,-7040,4.316370325,-442,-15.8536585366,260,26.9512195122,-1910,116.4634146341,8,-0.0347826087,-87,-0.3782608696,108,-0.5268292683
7212025,14550.78125,-2848,1.7461679951,9792,6.0036787247,-6224,3.8160637646,-793,-24.6341463415,404,48.3536585366,-1992,121.4634146341,9,-0.0391304348,-87,-0.3782608696,113,-0.5512195122
7212665,14570.3125,-3136,1.9227467811,9712,5.9546290619,-6336,3.8847332925,-793,-24.6341463415,404,48.3536585366,-1992,121.4634146341,10,-0.0434782609,-82,-0.3565217391,114,-0.556097561
7213305,14589.84375,-1744,1.0692826487,9664,5.9251992643,-7808,4.7872470877,-1234,-39.4512195122,647,75.243902439,-2118,129.1463414634,9,-0.0391304348,-72,-0.3130434783,117,-0.5707317073
7213945,14609.375,-1264,0.774984672,8832,5.4150827713,-8352,5.1207847946,-1234,-39.4512195122,647,75.243902439,-2118,129.1463414634,10,-0.0434782609,-72,-0.3130434783,117,-0.5707317073
7214585,14628.90625,-2560,1.5695892091,7952,4.8755364807,-7200,4.4144696505,-671,-47.3170731707,776,40.9146341463,-2092,127.5609756098,9,-0.0391304348,-67,-0.2913043478,119,-0.5804878049
7215225,14648.4375,-3168,1.9423666462,7584,4.6499080319,-6496,3.982832618,-563,-64.2682926829,1054,34.3292682927,-2130,129.8780487805,9,-0.0391304348,-60,-0.2608695652,121,-0.5902439024
7215865,14667.96875,-2928,1.7952176579,7072,4.3359901901,-8064,4.9442060086,-563,-64.2682926829,1054,34.3292682927,-2130,129.8780487805,12,-0.052173913,-59,-0.2565217391,123,-0.6
7216505,14687.5,-3712,2.2759043532,5968,3.6591048437,-8128,4.9834457388,70,-72.8658536585,1195,-4.2682926829,-2138,130.3658536585,13,-0.0565217391,-51,-0.2217391304,123,-0.6
7217145,14707.03125,-5296,3.2470876763,4800,2.942979767,-6832,4.1888412017,14,-82.3780487805,1351,-0.8536585366,-2243,136.7682926829,14,-0.0608695652,-52,-0.2260869565,123,-0.6
7217785,14726.5625,-6896,4.2280809319,3776,2.3151440834,-7392,4.5321888412,14,-82.3780487805,1351,-0.8536585366,-2243,136.7682926829,12,-0.052173913,-40,-0.1739130435,123,-0.6
7218425,14746.09375,-6816,4.1790312692,4144,2.5407725322,-8384,5.1404046597,-349,-93.3536585366,1531,21.2804878049,-2256,137.5609756098,12,-0.052173913,-35,-0.152173913,125,-0.6097560976
7219065,14765.625,-6448,3.9534028204,3424,2.0993255671,-8560,5.2483139178,-349,-93.3536585366,1531,21.2804878049,-2256,137.5609756098,9,-0.0391304348,-28,-0.1217391304,125,-0.6097560976
7219705,14785.15625,-7264,4.4537093807,1552,0.951563458,-7664,4.6989576947,-166,-103.3536585366,1695,10.1219512195,-1952,119.0243902439,10,-0.0434782609,-28,-0.1217391304,125,-0.6097560976
7220345,14804.6875,-8080,4.9540159411,400,0.2452483139,-8384,5.1404046597,-621,-113.4756097561,1861,37.8658536585,-2048,124.8780487805,6,-0.0260869565,-20,-0.0869565217,126,-0.6146341463
7220985,14824.21875,-7536,4.6204782342,640,0.3923973023,-11008,6.749233599,-621,-113.4756097561,1861,37.8658536585,-2048,124.8780487805,6,-0.0260869565,-14,-0.0608695652,123,-0.6
7221625,14843.75,-5760,3.5315757204,592,0.3629675046,-12224,7.4947884733,-386,-123.2926829268,2022,23.5365853659,-1944,118.5365853659,3,-0.0130434783,-4,-0.0173913043,123,-0.6
7222265,14863.28125,-5920,3.629675046,-1376,-0.8436541999,-11264,6.9061925199,-386,-123.2926829268,2022,23.5365853659,-1944,118.5365853659,3,-0.0130434783,-4,-0.0173913043,124,-0.6048780488
7222905,14882.8125,-8400,5.1502145923,-3472,-2.1287553648,-10176,6.2391171061,185,-125.6097560976,2060,-11.2804878049,-1598,97.4390243902,-1,0.0043478261,2,0.0086956522,121,-0.5902439024
7223545,14902.34375,-10352,6.3470263642,-4544,-2.7860208461,-11744,7.2004904966,-593,-123.5365853659,2026,36.1585365854,-1669,101.7682926829,-1,0.0043478261,8,0.0347826087,119,-0.5804878049
7224185,14921.875,-9424,5.7780502759,-4320,-2.6486817903,-12352,7.5732679338,-593,-123.5365853659,2026,36.1585365854,-1669,101.7682926829,-6,0.0260869565,14,0.0608695652,117,-0.5707317073
7224825,14941.40625,-7808,4.7872470877,-4832,-2.9625996321,-10704,6.5628448804,-1313,-124.3292682927,2039,80.0609756098,-1452,88.5365853659,-10,0.0434782609,20,0.0869565217,117,-0.5707317073
7225465,14960.9375,-6672,4.0907418761,-6544,-4.0122624157,-9792,6.0036787247,-1524,-142.5609756098,2338,92.9268292683,-1187,72.3780487805,-15,0.0652173913,21,0.0913043478,118,-0.5756097561
7226105,14980.46875,-5488,3.364806867,-8272,-5.0717351318,-11376,6.9748620478,-1524,-142.5609756098,2338,92.9268292683,-1187,72.3780487805,-17,0.0739130435,24,0.1043478261,118,-0.5756097561
7226745,15000,-4272,2.6192519926,-9440,-5.7878602085,-14080,8.6327406499,-1190,-149.4512195122,2451,72.5609756098,-1014,61.8292682927,-20,0.0869565217,29,0.1260869565,115,-0.5609756098
7227385,15019.53125,-3856,2.3641937462,-10352,-6.3470263642,-13408,8.2207234825,-1190,-149.4512195122,2451,72.5609756098,-1014,61.8292682927,-24,0.1043478261,30,0.1304347826,114,-0.556097561
7228025,15039.0625,-4848,2.9724095647,-11824,-7.2495401594,-10416,6.3862660944,-593,-152.743902439,2505,36.1585365854,-830,50.6097560976,-28,0.1217391304,38,0.1652173913,111,-0.5414634146
7228665,15058.59375,-5328,3.2667075414,-14400,-8.828939301,-10400,6.3764561619,-990,-163.3536585366,2679,60.3658536585,-761,46.4024390244,-28,0.1217391304,35,0.152173913,108,-0.5268292683
7229305,15078.125,-4464,2.7369711833,-15648,-9.5941140405,-13664,8.3776824034,-990,-163.3536585366,2679,60.3658536585,-761,46.4024390244,-31,0.1347826087,40,0.1739130435,105,-0.512195122
7229945,15097.65625,-4048,2.4819129368,-15472,-9.4862047823,-14960,9.1722869405,-590,-146.5853658537,2404,35.9756097561,-340,20.7317073171,-33,0.1434782609,46,0.2,103,-0.5024390244
7230585,15117.1875,-4960,3.0410790926,-15568,-9.5450643777,-11872,7.2789699571,-590,-146.5853658537,2404,35.9756097561,-340,20.7317073171,-36,0.1565217391,48,0.2086956522,98,-0.4780487805
7231225,15136.71875,-5936,3.6394849785,-17696,-10.8497854077,-9856,6.0429184549,-687,-153.8414634146,2523,41.8902439024,-147,8.9634146341,-35,0.152173913,46,0.2,95,-0.4634146341
7231865,15156.25,-5760,3.5315757204,-19888,-12.193746168,-11696,7.171060699,-1614,-141.1585365854,2315,98.4146341463,-86,5.243902439,-39,0.1695652174,51,0.2217391304,92,-0.4487804878
7232505,15175.78125,-5040,3.0901287554,-19264,-11.8111587983,-13520,8.2893930104,-1614,-141.1585365854,2315,98.4146341463,-86,5.243902439,-40,0.1739130435,52,0.2260869565,91,-0.443902439
7233145,15195.3125,-4928,3.0214592275,-18848,-11.5561005518,-12688,7.7792765175,-1657,-124.8780487805,2048,101.0365853659,238,-14.512195122,-40,0.1739130435,51,0.2217391304,87,-0.4243902439
7233785,15214.84375,-5488,3.364806867,-20032,-12.282035561,-10768,6.6020846107,-2254,-121.6463414634,1995,137.4390243902,713,-43.4756097561,-40,0.1739130435,51,0.2217391304,87,-0.4243902439
7234425,15234.375,-5120,3.1391784181,-20848,-12.7823421214,-10144,6.219497241,-2254,-121.6463414634,1995,137.4390243902,713,-43.4756097561,-40,0.1739130435,50,0.2173913043,84,-0.4097560976
7235065,15253.90625,-3696,2.2660944206,-21040,-12.9000613121,-11280,6.9160024525,-2842,-103.2317073171,1693,173.2926829268,1040,-63.4146341463,-39,0.1695652174,52,0.2260869565,84,-0.4097560976
7235705,15273.4375,-2272,1.3930104231,-21472,-13.1649294911,-11344,6.9552421827,-2842,-103.2317073171,1693,173.2926829268,1040,-63.4146341463,-41,0.1782608696,50,0.2173913043,84,-0.4097560976
7236345,15292.96875,-2240,1.3733905579,-21904,-13.4297976701,-11104,6.8080931944,-2422,-88.1707317073,1446,147.6829268293,1591,-97.012195122,-36,0.1565217391,48,0.2086956522,86,-0.4195121951
7236985,15312.5,-2832,1.7363580625,-21984,-13.4788473329,-12528,7.6811771919,-1809,-68.4756097561,1123,110.3048780488,1848,-112.6829268293,-34,0.147826087,49,0.2130434783,84,-0.4097560976
7237625,15332.03125,-3664,2.2464745555,-21648,-13.2728387492,-13408,8.2207234825,-1809,-68.4756097561,1123,110.3048780488,1848,-112.6829268293,-32,0.1391304348,50,0.2173913043,84,-0.4097560976
7238265,15351.5625,-4400,2.6977314531,-21968,-13.4690374004,-13504,8.2795830779,-1482,-53.5365853659,878,90.3658536585,2380,-145.1219512195,-28,0.1217391304,46,0.2,83,-0.4048780488
7238905,15371.09375,-5632,3.45309626,-22560,-13.832004905,-13712,8.4071122011,-1482,-53.5365853659,878,90.3658536585,2380,-145.1219512195,-25,0.1086956522,40,0.1739130435,86,-0.4195121951
7239545,15390.625,-5968,3.6591048437,-23136,-14.185162477,-14016,8.5935009197,-1584,-37.1951219512,610,96.5853658537,2823,-172.1341463415,-19,0.0826086957,37,0.1608695652,88,-0.4292682927
7240185,15410.15625,-5328,3.2667075414,-23616,-14.4794604537,-14304,8.7700797057,-1868,-17.1951219512,282,113.9024390244,3163,-192.8658536585,-16,0.0695652174,40,0.1739130435,87,-0.4243902439
7240825,15429.6875,-4832,2.9625996321,-23568,-14.450030656,-14368,8.8093194359,-1868,-17.1951219512,282,113.9024390244,3163,-192.8658536585,-10,0.0434782609,29,0.1260869565,92,-0.4487804878
7241465,15449.21875,-4784,2.9331698345,-23168,-14.2047823421,-13920,8.5346413243,-2093,5.6097560976,-92,127.6219512195,3450,-210.3658536585,-7,0.0304347826,26,0.1130434783,93,-0.4536585366
7242105,15468.75,-3984,2.4426732066,-23200,-14.2244022072,-14480,8.8779889638,-2093,5.6097560976,-92,127.6219512195,3450,-210.3658536585,-4,0.0173913043,24,0.1043478261,98,-0.4780487805
7242745,15488.28125,-3520,2.1581851625,-22976,-14.0870631514,-14944,9.162477008,-2290,31.4634146341,-516,139.6341463415,3484,-212.4390243902,0,0,18,0.0782608696,99,-0.4829268293
7243385,15507.8125,-2960,1.814837523,-22160,-13.586756591,-14672,8.9957081545,-2199,57.0731707317,-936,134.0853658537,3572,-217.8048780488,1,-0.0043478261,14,0.0608695652,107,-0.5219512195
7244025,15527.34375,-2384,1.461679951,-21392,-13.1158798283,-15424,9.4567749847,-2199,57.0731707317,-936,134.0853658537,3572,-217.8048780488,4,-0.0173913043,3,0.0130434783,112,-0.5463414634
7244665,15546.875,-2208,1.3537706928,-20384,-12.4978540773,-16048,9.8393623544,-1926,80.7317073171,-1324,117.4390243902,3548,-216.3414634146,5,-0.0217391304,-5,-0.0217391304,117,-0.5707317073
7245305,15566.40625,-1936,1.1870018394,-19696,-12.0760269773,-16464,10.0944206009,-1421,97.3780487805,-1597,86.6463414634,3676,-224.1463414634,7,-0.0304347826,-12,-0.052173913,120,-0.5853658537
7245945,15585.9375,-2176,1.3341508277,-19344,-11.8602084611,-16544,10.1434702636,-1421,97.3780487805,-1597,86.6463414634,3676,-224.1463414634,9,-0.0391304348,-26,-0.1130434783,125,-0.6097560976
7246585,15605.46875,-2608,1.5990190067,-18768,-11.507050889,-16000,9.8099325567,-1374,114.4512195122,-1877,83.7804878049,3364,-205.1219512195,5,-0.0217391304,-26,-0.1130434783,126,-0.6146341463
7247225,15625,-2544,1.5597792765,-17616,-10.8007357449,-15600,9.5646842428,-1374,114.4512195122,-1877,83.7804878049,3364,-205.1219512195,8,-0.0347826087,-40,-0.1739130435,129,-0.6292682927
7247865,15644.53125,-2176,1.3341508277,-16288,-9.9865113427,-15424,9.4567749847,-1952,132.3170731707,-2170,119.0243902439,2865,-174.6951219512,5,-0.0217391304,-48,-0.2086956522,134,-0.6536585366
7248505,15664.0625,-1376,0.8436541999,-15040,-9.2213366033,-15104,9.2605763335,-2458,149.2073170732,-2447,149.8780487805,2205,-134.4512195122,3,-0.0130434783,-50,-0.2173913043,136,-0.6634146341
7249145,15683.59375,-240,0.1471489884,-13376,-8.2011036174,-14752,9.0447578173,-2458,149.2073170732,-2447,149.8780487805,2205,-134.4512195122,-3,0.0130434783,-61,-0.2652173913,139,-0.6780487805
7249785,15703.125,688,-0.4218270999,-11584,-7.1023911711,-14656,8.9858982219,-2621,161.7682926829,-2653,159.8170731707,1465,-89.3292682927,-8,0.0347826087,-65,-0.2826086957,143,-0.6975609756
7250425,15722.65625,1712,-1.0496627836,-9792,-6.0036787247,-14624,8.9662783568,-2621,161.7682926829,-2653,159.8170731707,1465,-89.3292682927,-16,0.0695652174,-73,-0.3173913043,145,-0.7073170732
7251065,15742.1875,2320,-1.4224402207,-8496,-5.2090741876,-14656,8.9858982219,-2476,168.5975609756,-2765,150.9756097561,780,-47.5609756098,-17,0.0739130435,-77,-0.3347826087,145,-0.7073170732
7251705,15761.71875,2672,-1.638258737,-7408,-4.5419987738,-14768,9.0545677498,-2039,171.5243902439,-2813,124.3292682927,247,-15.0609756098,-20,0.0869565217,-87,-0.3782608696,146,-0.712195122
7252345,15781.25,2432,-1.4911097486,-6464,-3.9632127529,-14544,8.9172286941,-2039,171.5243902439,-2813,124.3292682927,247,-15.0609756098,-24,0.1043478261,-92,-0.4,146,-0.712195122
7252985,15800.78125,1536,-0.9417535254,-5728,-3.5119558553,-14128,8.6621704476,-1750,172.256097561,-2825,106.7073170732,-72,4.3902439024,-28,0.1217391304,-98,-0.4260869565,145,-0.7073170732
7253625,15820.3125,816,-0.5003065604,-4688,-2.8743102391,-13680,8.387492336,-1882,170.7926829268,-2801,114.756097561,-379,23.1097560976,-27,0.1173913043,-100,-0.4347826087,144,-0.7024390244
7254265,15839.84375,912,-0.5591661557,-3344,-2.0502759044,-12672,7.7694665849,-1882,170.7926829268,-2801,114.756097561,-379,23.1097560976,-30,0.1304347826,-107,-0.4652173913,142,-0.6926829268
7254905,15859.375,1680,-1.0300429185,-1648,-1.0104230533,-11792,7.2299202943,-2164,167.6829268293,-2750,131.9512195122,-747,45.5487804878,-32,0.1391304348,-109,-0.4739130435,140,-0.6829268293
7255545,15878.90625,2496,-1.5303494788,64,0.0392397302,-11056,6.7786633967,-2164,167.6829268293,-2750,131.9512195122,-747,45.5487804878,-36,0.1565217391,-110,-0.4782608696,136,-0.6634146341
7256185,15898.4375,3040,-1.8638871858,1504,0.9221336603,-10160,6.2293071735,-1963,158.4756097561,-2599,119.6951219512,-1017,62.012195122,-34,0.147826087,-117,-0.5086956522,135,-0.6585365854
7256825,15917.96875,3488,-2.1385652974,2352,1.4420600858,-9616,5.8957694666,-1587,143.0487804878,-2346,96.7682926829,-1226,74.756097561,-34,0.147826087,-120,-0.5217391304,132,-0.643902439
7257465,15937.5,4176,-2.5603923973,3072,1.8835070509,-8800,5.3954629062,-1587,143.0487804878,-2346,96.7682926829,-1226,74.756097561,-36,0.1565217391,-117,-0.5086956522,129,-0.6292682927
7258105,15957.03125,4304,-2.6388718578,3792,2.3249540159,-8480,5.1992642551,-1140,128.5975609756,-2109,69.512195122,-1462,89.1463414634,-35,0.152173913,-119,-0.5173913043,125,-0.6097560976
7258745,15976.5625,4096,-2.5113427345,4704,2.8841201717,-8304,5.0913549969,-1140,128.5975609756,-2109,69.512195122,-1462,89.1463414634,-32,0.1391304348,-122,-0.5304347826,123,-0.6
7259385,15996.09375,3616,-2.2170447578,5152,3.1587982833,-8096,4.9638258737,-749,115.5487804878,-1895,45.6707317073,-1675,102.1341463415,-30,0.1304347826,-120,-0.5217391304,119,-0.5804878049
7260025,16015.625,1984,-1.216431637,6016,3.6885346413,-7616,4.669527897,-736,102.8658536585,-1687,44.8780487805,-1763,107.5,-28,0.1217391304,-120,-0.5217391304,116,-0.5658536585
7260665,16035.15625,1280,-0.7847946045,6688,4.1005518087,-7712,4.7283874923,-736,102.8658536585,-1687,44.8780487805,-1763,107.5,-23,0.1,-122,-0.5304347826,113,-0.5512195122
7261305,16054.6875,1488,-0.9123237278,7536,4.6204782342,-7824,4.7970570202,-905,93.2317073171,-1529,55.1829268293,-1877,114.4512195122,-21,0.0913043478,-123,-0.5347826087,112,-0.5463414634
7261945,16074.21875,1248,-0.7651747394,8384,5.1404046597,-7280,4.4635193133,-765,78.4146341463,-1286,46.6463414634,-1880,114.6341463415,-17,0.0739130435,-122,-0.5304347826,111,-0.5414634146
7262585,16093.75,336,-0.2060085837,8768,5.3758430411,-7136,4.3752299203,-765,78.4146341463,-1286,46.6463414634,-1880,114.6341463415,-17,0.0739130435,-117,-0.5086956522,107,-0.5219512195
7263225,16113.28125,-144,0.088289393,9040,5.5426118945,-7184,4.404659718,-721,67.3170731707,-1104,43.9634146341,-1909,116.4024390244,-11,0.047826087,-117,-0.5086956522,106,-0.5170731707
7263865,16132.8125,-272,0.1667688535,9408,5.7682403433,-6480,3.9730226855,-721,67.3170731707,-1104,43.9634146341,-1909,116.4024390244,-9,0.0391304348,-116,-0.5043478261,107,-0.5219512195
7264505,16152.34375,-672,0.4120171674,9760,5.9840588596,-5920,3.629675046,-745,55.5487804878,-911,45.4268292683,-2084,127.0731707317,-7,0.0304347826,-116,-0.5043478261,105,-0.512195122
7265145,16171.875,-1392,0.8534641324,10128,6.2096873084,-6176,3.7866339669,-863,45.9146341463,-753,52.6219512195,-2283,139.2073170732,-3,0.0130434783,-110,-0.4782608696,104,-0.5073170732
7265785,16191.40625,-1696,1.039852851,10352,6.3470263642,-6000,3.6787247088,-863,45.9146341463,-753,52.6219512195,-2283,139.2073170732,-1,0.0043478261,-102,-0.4434782609,103,-0.5024390244
7266425,16210.9375,-1440,0.8828939301,10272,6.2979767014,-5824,3.5708154506,-748,30.7926829268,-505,45.6097560976,-2316,141.2195121951,-1,0.0043478261,-103,-0.447826087,103,-0.5024390244
7267065,16230.46875,-1280,0.7847946045,10304,6.3175965665,-6752,4.1397915389,-748,30.7926829268,-505,45.6097560976,-2316,141.2195121951,5,-0.0217391304,-101,-0.4391304348,103,-0.5024390244
7267705,16250,-1936,1.1870018394,10160,6.2293071735,-6848,4.1986511343,-294,21.8292682927,-358,17.9268292683,-2455,149.6951219512,6,-0.0260869565,-93,-0.4043478261,103,-0.5024390244
7268345,16269.53125,-4064,2.4917228694,9888,6.06253832,-5952,3.6492949111,-265,11.7073170732,-192,16.1585365854,-2375,144.8170731707,9,-0.0391304348,-87,-0.3782608696,103,-0.5024390244
7268985,16289.0625,-4352,2.6683016554,10144,6.219497241,-6224,3.8160637646,-265,11.7073170732,-192,16.1585365854,-2375,144.8170731707,13,-0.0565217391,-89,-0.3869565217,105,-0.512195122
7269625,16308.59375,-3904,2.3936235438,9984,6.1213979154,-6960,4.2673206622,-100,3.7195121951,-61,6.0975609756,-2292,139.756097561,16,-0.0695652174,-80,-0.347826087,105,-0.512195122
7270265,16328.125,-4400,2.6977314531,9232,5.6603310852,-6736,4.1299816064,-100,3.7195121951,-61,6.0975609756,-2292,139.756097561,19,-0.0826086957,-82,-0.3565217391,104,-0.5073170732
7270905,16347.65625,-5696,3.4923359902,8608,5.2777437155,-6256,3.8356836297,-115,-1.4634146341,24,7.012195122,-2319,141.4024390244,18,-0.0782608696,-69,-0.3,104,-0.5073170732
7271545,16367.1875,-5104,3.1293684856,9152,5.6112814224,-5568,3.4138565297,-513,-12.6219512195,207,31.2804878049,-2265,138.1097560976,18,-0.0782608696,-67,-0.2913043478,105,-0.512195122
7272185,16386.71875,-3584,2.1974248927,9248,5.6701410178,-5360,3.2863274065,-513,-12.6219512195,207,31.2804878049,-2265,138.1097560976,19,-0.0826086957,-61,-0.2652173913,105,-0.512195122
7272825,16406.25,-3968,2.4328632741,8448,5.1796443899,-5344,3.2765174739,22,-30.487804878,500,-1.3414634146,-2089,127.3780487805,19,-0.0826086957,-54,-0.2347826087,105,-0.512195122
7273465,16425.78125,-5568,3.4138565297,7536,4.6204782342,-5520,3.3844267321,-227,-40.1219512195,658,13.8414634146,-2071,126.2804878049,21,-0.0913043478,-48,-0.2086956522,104,-0.5073170732
7274105,16445.3125,-7296,4.4733292459,7712,4.7283874923,-6000,3.6787247088,-227,-40.1219512195,658,13.8414634146,-2071,126.2804878049,21,-0.0913043478,-47,-0.2043478261,105,-0.512195122
7274745,16464.84375,-7056,4.3261802575,7792,4.7774371551,-7552,4.6302881668,-722,-53.9024390244,884,44.0243902439,-2022,123.2926829268,21,-0.0913043478,-44,-0.1913043478,107,-0.5219512195
7275385,16484.375,-6896,4.2280809319,6480,3.9730226855,-7808,4.7872470877,-722,-53.9024390244,884,44.0243902439,-2022,123.2926829268,20,-0.0869565217,-42,-0.1826086957,110,-0.5365853659
7276025,16503.90625,-7936,4.8657265481,5376,3.2961373391,-6784,4.159411404,-814,-57.8658536585,949,49.6341463415,-1899,115.7926829268,19,-0.0826086957,-36,-0.1565217391,111,-0.5414634146
7276665,16523.4375,-8384,5.1404046597,4976,3.0508890251,-7856,4.8166768853,-1079,-70.6097560976,1158,65.7926829268,-2061,125.6707317073,15,-0.0652173913,-29,-0.1260869565,112,-0.5463414634
7277305,16542.96875,-7584,4.6499080319,4528,2.7762109135,-9344,5.7290006131,-1079,-70.6097560976,1158,65.7926829268,-2061,125.6707317073,15,-0.0652173913,-23,-0.1,114,-0.556097561
7277945,16562.5,-7216,4.4242795831,3312,2.0306560392,-8672,5.3169834457,-651,-77.6219512195,1273,39.6951219512,-1809,110.3048780488,16,-0.0695652174,-23,-0.1,117,-0.5707317073
7278585,16582.03125,-8480,5.1992642551,1824,1.1183323115,-6960,4.2673206622,-651,-77.6219512195,1273,39.6951219512,-1809,110.3048780488,11,-0.047826087,-13,-0.0565217391,115,-0.5609756098
7279225,16601.5625,-9312,5.709380748,1136,0.6965052115,-8416,5.1600245248,-773,-94.1463414634,1544,47.1341463415,-1741,106.1585365854,11,-0.047826087,-11,-0.047826087,116,-0.5658536585
7279865,16621.09375,-8304,5.0913549969,1424,0.8730839975,-10032,6.1508277131,-828,-108.1097560976,1773,50.487804878,-1602,97.6829268293,7,-0.0304347826,-9,-0.0391304348,117,-0.5707317073
7280505,16640.625,-7872,4.8264868179,16,0.0098099326,-10096,6.1900674433,-828,-108.1097560976,1773,50.487804878,-1602,97.6829268293,5,-0.0217391304,-3,-0.0130434783,119,-0.5804878049
7281145,16660.15625,-9088,5.5720416922,-1840,-1.128142244,-9312,5.709380748,-705,-114.3902439024,1876,42.987804878,-1268,77.3170731707,5,-0.0217391304,1,0.0043478261,117,-0.5707317073
7281785,16679.6875,-9408,5.7682403433,-2848,-1.7461679951,-10080,6.1802575107,-1412,-119.0243902439,1952,86.0975609756,-1346,82.0731707317,-3,0.0130434783,6,0.0260869565,118,-0.5756097561
7282425,16699.21875,-8464,5.1894543225,-3104,-1.903126916,-11568,7.0925812385,-1412,-119.0243902439,1952,86.0975609756,-1346,82.0731707317,-4,0.0173913043,6,0.0260869565,119,-0.5804878049
7283065,16718.75,-7104,4.3556100552,-4112,-2.5211526671,-11616,7.1220110362,-1414,-125.3048780488,2055,86.2195121951,-1150,70.1219512195,-8,0.0347826087,16,0.0695652174,117,-0.5707317073
7283705,16738.28125,-6608,4.0515021459,-5472,-3.3549969344,-9776,5.9938687922,-1414,-125.3048780488,2055,86.2195121951,-1150,70.1219512195,-10,0.0434782609,14,0.0608695652,118,-0.5756097561
7284345,16757.8125,-6160,3.7768240343,-7088,-4.3458001226,-10576,6.48436542,-1388,-141.0975609756,2314,84.6341463415,-1053,64.2073170732,-14,0.0608695652,24,0.1043478261,117,-0.5707317073
7284985,16777.34375,-5344,3.2765174739,-7840,-4.8068669528,-12720,7.7988963826,-964,-148.9634146341,2443,58.7804878049,-806,49.1463414634,-17,0.0739130435,27,0.1173913043,117,-0.5707317073
7285625,16796.875,-4976,3.0508890251,-9072,-5.5622317597,-12704,7.78908645,-964,-148.9634146341,2443,58.7804878049,-806,49.1463414634,-21,0.0913043478,31,0.1347826087,115,-0.5609756098
7286265,16816.40625,-5824,3.5708154506,-10480,-6.4255058246,-10096,6.1900674433,-658,-154.9390243902,2541,40.1219512195,-739,45.0609756098,-20,0.0869565217,29,0.1260869565,113,-0.5512195122
7286905,16835.9375,-6288,3.8553034948,-12672,-7.7694665849,-9168,5.621091355,-658,-154.9390243902,2541,40.1219512195,-739,45.0609756098,-25,0.1086956522,33,0.1434782609,109,-0.5317073171
7287545,16855.46875,-4736,2.9037400368,-15056,-9.2311465359,-12016,7.3672593501,-1290,-162.987804878,2673,78.6585365854,-958,58.4146341463,-28,0.1217391304,38,0.1652173913,107,-0.5219512195
7288185,16875,-2864,1.7559779277,-15552,-9.5352544451,-13056,8.0049049663,-767,-156.4634146341,2566,46.7682926829,-628,38.2926829268,-32,0.1391304348,43,0.1869565217,103,-0.5024390244
7288825,16894.53125,-2960,1.814837523,-15584,-9.5548743102,-10864,6.660944206,-767,-156.4634146341,2566,46.7682926829,-628,38.2926829268,-32,0.1391304348,40,0.1739130435,102,-0.4975609756
7289465,16914.0625,-3968,2.4328632741,-17152,-10.5162477008,-8528,5.2286940527,-606,-165.7926829268,2719,36.9512195122,-587,35.7926829268,-35,0.152173913,45,0.1956521739,97,-0.4731707317
7290105,16933.59375,-4272,2.6192519926,-19600,-12.017167382,-7920,4.8559166156,-1746,-163.7195121951,2685,106.4634146341,-722,44.0243902439,-38,0.1652173913,50,0.2173913043,93,-0.4536585366
7290745,16953.125,-3760,2.3053341508,-21168,-12.9785407725,-11184,6.8571428571,-1746,-163.7195121951,2685,106.4634146341,-722,44.0243902439,-40,0.1739130435,51,0.2217391304,89,-0.4341463415
7291385,16972.65625,-3424,2.0993255671,-20208,-12.3899448191,-13088,8.0245248314,-1615,-141.9512195122,2328,98.4756097561,-264,16.0975609756,-41,0.1782608696,48,0.2086956522,89,-0.4341463415
7292025,16992.1875,-3760,2.3053341508,-20480,-12.5567136726,-13184,8.0833844267,-1615,-141.9512195122,2328,98.4756097561,-264,16.0975609756,-44,0.1913043478,55,0.2391304348,85,-0.4146341463
7292665,17011.71875,-6128,3.7572041692,-22032,-13.5082771306,-12752,7.8185162477,-1543,-137.8048780488,2260,94.0853658537,368,-22.4390243902,-43,0.1869565217,54,0.2347826087,82,-0.4
7293305,17031.25,-7664,4.6989576947,-21936,-13.4494175353,-11584,7.1023911711,-2688,-113.9024390244,1868,163.9024390244,914,-55.7317073171,-42,0.1826086957,53,0.2304347826,81,-0.3951219512
7293945,17050.78125,-6368,3.9043531576,-21744,-13.3316983446,-12736,7.8087063151,-2688,-113.9024390244,1868,163.9024390244,914,-55.7317073171,-44,0.1913043478,52,0.2260869565,80,-0.3902439024
7294585,17070.3125,-3520,2.1581851625,-22224,-13.6259963213,-13264,8.1324340895,-2728,-91.7682926829,1505,166.3414634146,1771,-107.987804878,-41,0.1782608696,52,0.2260869565,81,-0.3951219512
7295225,17089.84375,-3264,2.0012262416,-23024,-14.1164929491,-13024,7.9852851012,-2728,-91.7682926829,1505,166.3414634146,1771,-107.987804878,-37,0.1608695652,50,0.2173913043,80,-0.3902439024
7295865,17109.375,-4768,2.9233599019,-23184,-14.2145922747,-13344,8.1814837523,-2009,-66.8292682927,1096,122.5,2461,-150.0609756098,-32,0.1391304348,46,0.2,79,-0.3853658537
7296505,17128.90625,-5024,3.0803188228,-23632,-14.4892703863,-14016,8.5935009197,-2237,-48.2317073171,791,136.4024390244,2719,-165.7926829268,-32,0.1391304348,43,0.1869565217,82,-0.4
7297145,17148.4375,-4512,2.766400981,-24848,-15.2348252606,-15216,9.3292458614,-2237,-48.2317073171,791,136.4024390244,2719,-165.7926829268,-27,0.1173913043,40,0.1739130435,84,-0.4097560976
7297785,17167.96875,-4592,2.8154506438,-25296,-15.5095033722,-15664,9.603923973,-2219,-21.0975609756,346,135.3048780488,3071,-187.256097561,-21,0.0913043478,37,0.1608695652,85,-0.4146341463
7298425,17187.5,-4576,2.8056407112,-24864,-15.2446351931,-16144,9.8982219497,-2219,-21.0975609756,346,135.3048780488,3071,-187.256097561,-16,0.0695652174,37,0.1608695652,87,-0.4243902439
7299065,17207.03125,-4192,2.5702023299,-24624,-15.0974862048,-16768,10.2808093194,-2062,2.8658536585,-47,125.7317073171,3190,-194.512195122,-12,0.052173913,33,0.1434782609,90,-0.4390243902
7299705,17226.5625,-3648,2.2366646229,-24224,-14.8522378909,-16928,10.378908645,-1721,30.9146341463,-507,104.9390243902,3455,-210.6707317073,-7,0.0304347826,27,0.1173913043,95,-0.4634146341
7300345,17246.09375,-3600,2.2072348253,-23696,-14.5285101165,-16816,10.3102391171,-1721,30.9146341463,-507,104.9390243902,3455,-210.6707317073,-4,0.0173913043,20,0.0869565217,97,-0.4731707317
7300985,17265.625,-3808,2.3347639485,-23360,-14.3225015328,-16816,10.3102391171,-1511,56.2195121951,-922,92.1341463415,3577,-218.1097560976,2,-0.0086956522,12,0.052173913,102,-0.4975609756
7301625,17285.15625,-3760,2.3053341508,-23456,-14.3813611281,-16736,10.2611894543,-1534,85.487804878,-1402,93.5365853659,3616,-220.487804878,3,-0.0130434783,12,0.052173913,104,-0.5073170732
7302265,17304.6875,-4128,2.5309625996,-23104,-14.1655426119,-16640,10.202329859,-1534,85.487804878,-1402,93.5365853659,3616,-220.487804878,6,-0.0260869565,1,0.0043478261,110,-0.5365853659
7302905,17324.21875,-4624,2.8350705089,-22176,-13.5965665236,-16048,9.8393623544,-1742,115.3048780488,-1891,106.2195121951,3566,-217.4390243902,9,-0.0391304348,-7,-0.0304347826,114,-0.556097561
7303545,17343.75,-4656,2.854690374,-21536,-13.2041692213,-15264,9.3586756591,-1742,115.3048780488,-1891,106.2195121951,3566,-217.4390243902,10,-0.0434782609,-20,-0.0869565217,121,-0.5902439024
7304185,17363.28125,-4928,3.0214592275,-20720,-12.7038626609,-14272,8.7504598406,-2296,141.3414634146,-2318,140,3402,-207.4390243902,8,-0.0347826087,-22,-0.0956521739,122,-0.5951219512
7304825,17382.8125,-4784,2.9331698345,-19008,-11.6541998774,-13088,8.0245248314,-3177,162.5609756098,-2666,193.7195121951,3073,-187.3780487805,6,-0.0260869565,-36,-0.1565217391,130,-0.6341463415
7305465,17402.34375,-3232,1.9816063765,-17328,-10.6241569589,-12416,7.612507664,-3177,162.5609756098,-2666,193.7195121951,3073,-187.3780487805,3,-0.0130434783,-41,-0.1782608696,135,-0.6585365854
7306105,17421.875,-848,0.5199264255,-15952,-9.780502759,-12144,7.4457388105,-4124,175.1829268293,-2873,251.4634146341,2438,-148.6585365854,-5,0.0217391304,-54,-0.2347826087,144,-0.7024390244
7306745,17441.40625,1712,-1.0496627836,-14256,-8.740649908,-11424,7.0042918455,-4124,175.1829268293,-2873,251.4634146341,2438,-148.6585365854,-11,0.047826087,-57,-0.247826087,147,-0.7170731707
7307385,17460.9375,4160,-2.5505824647,-12704,-7.78908645,-10784,6.6118945432,-4313,181.7073170732,-2980,262.987804878,1798,-109.6341463415,-21,0.0913043478,-67,-0.2913043478,152,-0.7414634146
7308025,17480.46875,6560,-4.0220723483,-10928,-6.7001839362,-10208,6.2587369712,-3848,183.9024390244,-3016,234.6341463415,1059,-64.5731707317,-28,0.1217391304,-74,-0.3217391304,156,-0.7609756098
7308665,17500,8464,-5.1894543225,-8400,-5.1502145923,-10032,6.1508277131,-3848,183.9024390244,-3016,234.6341463415,1059,-64.5731707317,-38,0.1652173913,-83,-0.3608695652,158,-0.7707317073
7309305,17519.53125,9088,-5.5720416922,-5568,-3.4138565297,-9888,6.06253832,-2869,183.0487804878,-3002,174.9390243902,337,-20.5487804878,-42,0.1826086957,-83,-0.3608695652,157,-0.7658536585
7309945,17539.0625,9072,-5.5622317597,-3440,-2.1091354997,-10080,6.1802575107,-1839,166.3414634146,-2728,112.1341463415,-143,8.7195121951,-45,0.1956521739,-94,-0.4086956522,154,-0.7512195122
7310585,17558.59375,8800,-5.3954629062,-2080,-1.2752912324,-9952,6.1017780503,-1839,166.3414634146,-2728,112.1341463415,-143,8.7195121951,-47,0.2043478261,-97,-0.4217391304,152,-0.7414634146
7311225,17578.125,8288,-5.0815450644,-1344,-0.8240343348,-10656,6.5334150828,-1157,149.2073170732,-2447,70.5487804878,-632,38.5365853659,-50,0.2173913043,-104,-0.452173913,149,-0.7268292683
7311865,17597.65625,7920,-4.8559166156,-512,-0.3139178418,-11104,6.8080931944,-1157,149.2073170732,-2447,70.5487804878,-632,38.5365853659,-47,0.2043478261,-106,-0.4608695652,148,-0.7219512195
7312505,17617.1875,7136,-4.3752299203,80,0.0490496628,-11024,6.7590435316,-812,140.1219512195,-2298,49.512195122,-993,60.5487804878,-52,0.2260869565,-111,-0.4826086957,147,-0.7170731707
7313145,17636.71875,6368,-3.9043531576,800,0.4904966278,-10320,6.3274064991,-739,132.1341463415,-2167,45.0609756098,-1201,73.2317073171,-49,0.2130434783,-109,-0.4739130435,143,-0.6975609756
7313785,17656.25,5680,-3.4825260576,1488,0.9123237278,-9744,5.974248927,-739,132.1341463415,-2167,45.0609756098,-1201,73.2317073171,-45,0.1956521739,-116,-0.5043478261,140,-0.6829268293
7314425,17675.78125,5264,-3.2274678112,2432,1.4911097486,-9296,5.6995708155,-855,123.2317073171,-2021,52.1341463415,-1480,90.243902439,-45,0.1956521739,-117,-0.5086956522,135,-0.6585365854
7315065,17695.3125,5008,-3.0705088903,3632,2.2268546904,-9584,5.8761496015,-855,123.2317073171,-2021,52.1341463415,-1480,90.243902439,-43,0.1869565217,-117,-0.5086956522,134,-0.6536585366
7315705,17714.84375,4816,-2.9527896996,4992,3.0606989577,-9616,5.8957694666,-764,113.2926829268,-1858,46.5853658537,-1627,99.2073170732,-41,0.1782608696,-120,-0.5217391304,130,-0.6341463415
7316345,17734.375,4528,-2.7762109135,6016,3.6885346413,-9264,5.6799509503,-546,101.4634146341,-1664,33.2926829268,-1649,100.5487804878,-38,0.1652173913,-124,-0.5391304348,129,-0.6292682927
7316985,17753.90625,3600,-2.2072348253,6416,3.9337829552,-8864,5.4347026364,-546,101.4634146341,-1664,33.2926829268,-1649,100.5487804878,-34,0.147826087,-122,-0.5304347826,123,-0.6
7317625,17773.4375,2336,-1.4322501533,6960,4.2673206622,-8592,5.267933783,-775,90.3658536585,-1482,47.256097561,-1826,111.3414634146,-34,0.147826087,-121,-0.5260869565,124,-0.6048780488
7318265,17792.96875,1792,-1.0987124464,7696,4.7185775598,-8032,4.9245861435,-1493,83.2926829268,-1366,91.0365853659,-2155,131.4024390244,-31,0.1347826087,-121,-0.5260869565,120,-0.5853658537
7318905,17812.5,1904,-1.1673819742,8560,5.2483139178,-6880,4.2182709994,-1493,83.2926829268,-1366,91.0365853659,-2155,131.4024390244,-28,0.1217391304,-123,-0.5347826087,121,-0.5902439024
7319545,17832.03125,2080,-1.2752912324,9136,5.6014714899,-6928,4.2477007971,-1986,68.0487804878,-1116,121.0975609756,-2557,155.9146341463,-23,0.1,-117,-0.5086956522,120,-0.5853658537
7320185,17851.5625,2368,-1.4518700184,9712,5.9546290619,-7408,4.5419987738,-1986,68.0487804878,-1116,121.0975609756,-2557,155.9146341463,-25,0.1086956522,-116,-0.5043478261,118,-0.5756097561
7320825,17871.09375,2800,-1.7167381974,10208,6.2587369712,-7280,4.4635193133,-1821,55.4268292683,-909,111.0365853659,-2723,166.0365853659,-21,0.0913043478,-114,-0.4956521739,119,-0.5804878049
7321465,17890.625,3008,-1.8442673207,10080,6.1802575107,-6384,3.9141630901,-1215,34.5731707317,-567,74.0853658537,-2696,164.3902439024,-16,0.0695652174,-116,-0.5043478261,121,-0.5902439024
7322105,17910.15625,2960,-1.814837523,9808,6.0134886573,-6480,3.9730226855,-1215,34.5731707317,-567,74.0853658537,-2696,164.3902439024,-14,0.0608695652,-110,-0.4782608696,120,-0.5853658537
7322745,17929.6875,3072,-1.8835070509,9888,6.06253832,-6608,4.0515021459,-289,19.3902439024,-318,17.6219512195,-2632,160.487804878,-11,0.047826087,-106,-0.4608695652,120,-0.5853658537
7323385,17949.21875,2048,-1.2556713673,9568,5.8663396689,-5824,3.5708154506,-289,19.3902439024,-318,17.6219512195,-2632,160.487804878,-8,0.0347826087,-98,-0.4260869565,120,-0.5853658537
7324025,17968.75,-224,0.1373390558,9232,5.6603310852,-5872,3.6002452483,563,8.2317073171,-135,-34.3292682927,-2438,148.6585365854,-3,0.0130434783,-100,-0.4347826087,118,-0.5756097561
7324665,17988.28125,-2000,1.2262415696,9344,5.7290006131,-6496,3.982832618,472,1.2804878049,-21,-28.7804878049,-2357,143.7195121951,2,-0.0086956522,-95,-0.4130434783,115,-0.5609756098
7325305,18007.8125,-2896,1.7755977928,9328,5.7191906806,-6896,4.2280809319,472,1.2804878049,-21,-28.7804878049,-2357,143.7195121951,5,-0.0217391304,-94,-0.4086956522,117,-0.5707317073
7325945,18027.34375,-3248,1.991416309,9392,5.7584304108,-7024,4.3065603924,-132,-4.2073170732,69,8.0487804878,-2347,143.1097560976,9,-0.0391304348,-88,-0.3826086957,115,-0.5609756098
7326585,18046.875,-3408,2.0895156346,9408,5.7682403433,-7152,4.3850398529,-132,-4.2073170732,69,8.0487804878,-2347,143.1097560976,10,-0.0434782609,-82,-0.3565217391,117,-0.5707317073
7327225,18066.40625,-3504,2.1483752299,9104,5.5818516248,-6896,4.2280809319,-511,-10.8536585366,178,31.1585365854,-2323,141.6463414634,11,-0.047826087,-77,-0.3347826087,117,-0.5707317073
7327865,18085.9375,-4320,2.6486817903,8960,5.4935622318,-6608,4.0515021459,-690,-18.7195121951,307,42.0731707317,-2211,134.8170731707,11,-0.047826087,-73,-0.3173913043,118,-0.5756097561
7328505,18105.46875,-4880,2.9920294298,8592,5.267933783,-6816,4.1790312692,-690,-18.7195121951,307,42.0731707317,-2211,134.8170731707,13,-0.0565217391,-71,-0.3086956522,121,-0.5902439024
7329145,18125,-4720,2.8939301042,8400,5.1502145923,-6992,4.2869405273,-912,-25,410,55.6097560976,-2191,133.5975609756,13,-0.0565217391,-62,-0.2695652174,122,-0.5951219512
7329785,18144.53125,-4864,2.9822194972,7888,4.8362967505,-6624,4.0613120785,-991,-33.1707317073,544,60.4268292683,-2033,123.9634146341,12,-0.052173913,-57,-0.247826087,124,-0.6048780488
7330425,18164.0625,-5632,3.45309626,7504,4.6008583691,-6368,3.9043531576,-991,-33.1707317073,544,60.4268292683,-2033,123.9634146341,13,-0.0565217391,-57,-0.247826087,126,-0.6146341463
7331065,18183.59375,-6256,3.8356836297,7520,4.6106683017,-7248,4.4438994482,-1280,-45.0609756098,739,78.0487804878,-1956,119.2682926829,12,-0.052173913,-51,-0.2217391304,129,-0.6292682927
7331705,18203.125,-6448,3.9534028204,7280,4.4635193133,-7936,4.8657265481,-1280,-45.0609756098,739,78.0487804878,-1956,119.2682926829,9,-0.0391304348,-47,-0.2043478261,130,-0.6341463415
7332345,18222.65625,-6352,3.894543225,6640,4.071122011,-7456,4.5714285714,-1440,-53.2317073171,873,87.8048780488,-1681,102.5,6,-0.0260869565,-40,-0.1739130435,132,-0.643902439
7332985,18242.1875,-6400,3.9239730227,6176,3.7866339669,-6576,4.0318822808,-1776,-73.2926829268,1202,108.2926829268,-1549,94.4512195122,4,-0.0173913043,-35,-0.152173913,135,-0.6585365854
7333625,18261.71875,-5648,3.4629061925,6896,4.2280809319,-7968,4.8853464132,-1776,-73.2926829268,1202,108.2926829268,-1549,94.4512195122,2,-0.0086956522,-34,-0.147826087,140,-0.6829268293
7334265,18281.25,-3888,2.3838136113,6896,4.2280809319,-10384,6.3666462293,-1175,-101.5243902439,1665,71.6463414634,-1336,81.4634146341,-1,0.0043478261,-27,-0.1173913043,138,-0.6731707317
7334905,18300.78125,-3728,2.2857142857,4960,3.0410790926,-10768,6.6020846107,-1175,-101.5243902439,1665,71.6463414634,-1336,81.4634146341,-3,0.0130434783,-21,-0.0913043478,139,-0.6780487805
7335545,18320.3125,-6064,3.717964439,2992,1.8344573881,-9936,6.0919681177,-234,-108.7195121951,1783,14.2682926829,-980,59.756097561,-3,0.0130434783,-20,-0.0869565217,141,-0.687804878
7336185,18339.84375,-7616,4.669527897,2448,1.5009196812,-10960,6.7198038013,-723,-117.5,1927,44.0853658537,-1232,75.1219512195,-7,0.0304347826,-13,-0.0565217391,139,-0.6780487805
7336825,18359.375,-6464,3.9632127529,2352,1.4420600858,-11696,7.171060699,-723,-117.5,1927,44.0853658537,-1232,75.1219512195,-10,0.0434782609,-10,-0.0434782609,138,-0.6731707317
7337465,18378.90625,-5408,3.3157572042,1040,0.6376456162,-11552,7.0827713059,-850,-120.1219512195,1970,51.8292682927,-983,59.9390243902,-12,0.052173913,-1,-0.0043478261,139,-0.6780487805
7338105,18398.4375,-5856,3.5904353158,-448,-0.2746781116,-11696,7.171060699,-892,-126.0975609756,2068,54.3902439024,-890,54.2682926829,-15,0.0652173913,-4,-0.0173913043,140,-0.6829268293
7338745,18417.96875,-5584,3.4236664623,-1120,-0.686695279,-12224,7.4947884733,-892,-126.0975609756,2068,54.3902439024,-890,54.2682926829,-19,0.0826086957,7,0.0304347826,138,-0.6731707317
7339385,18437.5,-4528,2.7762109135,-1440,-0.8828939301,-12288,7.5340282036,-885,-136.2804878049,2235,53.9634146341,-688,41.9512195122,-18,0.0782608696,6,0.0260869565,137,-0.6682926829
7340025,18457.03125,-4224,2.589822195,-2784,-1.7069282649,-12208,7.4849785408,-885,-136.2804878049,2235,53.9634146341,-688,41.9512195122,-22,0.0956521739,9,0.0391304348,137,-0.6682926829
7340665,18476.5625,-5040,3.0901287554,-4608,-2.8252605763,-12816,7.8577559779,-599,-141.4024390244,2319,36.5243902439,-359,21.8902439024,-23,0.1,13,0.0565217391,135,-0.6585365854
7341305,18496.09375,-5152,3.1587982833,-5888,-3.6100551809,-13552,8.3090128755,-888,-145,2378,54.1463414634,-349,21.2804878049,-26,0.1130434783,20,0.0869565217,133,-0.6487804878
7341945,18515.625,-4528,2.7762109135,-6880,-4.2182709994,-12880,7.8969957082,-888,-145,2378,54.1463414634,-349,21.2804878049,-27,0.1173913043,23,0.1,129,-0.6292682927
7342585,18535.15625,-4352,2.6683016554,-8192,-5.022685469,-11552,7.0827713059,-1106,-149.8780487805,2458,67.4390243902,-178,10.8536585366,-30,0.1304347826,24,0.1043478261,129,-0.6292682927
7343225,18554.6875,-4608,2.8252605763,-10080,-6.1802575107,-10768,6.6020846107,-1106,-149.8780487805,2458,67.4390243902,-178,10.8536585366,-35,0.152173913,29,0.1260869565,128,-0.6243902439
7343865,18574.21875,-4064,2.4917228694,-11840,-7.259350092,-10288,6.307786634,-1456,-157.1951219512,2578,88.7804878049,-218,13.2926829268,-37,0.1608695652,33,0.1434782609,125,-0.6097560976
7344505,18593.75,-2256,1.3832004905,-13504,-8.2795830779,-10880,6.6707541386,-1382,-169.9390243902,2787,84.2682926829,23,-1.4024390244,-37,0.1608695652,33,0.1434782609,123,-0.6
7345145,18613.28125,-896,0.5493562232,-14544,-8.9172286941,-10976,6.7296137339,-1382,-169.9390243902,2787,84.2682926829,23,-1.4024390244,-40,0.1739130435,40,0.1739130435,121,-0.5902439024
7345785,18632.8125,-1136,0.6965052115,-15488,-9.4960147149,-10400,6.3764561619,-612,-172.4390243902,2828,37.3170731707,341,-20.7926829268,-42,0.1826086957,41,0.1782608696,115,-0.5609756098
7346425,18652.34375,-2336,1.4322501533,-16992,-10.4181483752,-9920,6.0821581852,-976,-174.512195122,2862,59.512195122,394,-24.0243902439,-40,0.1739130435,39,0.1695652174,115,-0.5609756098
7347065,18671.875,-2480,1.5205395463,-19024,-11.6640098099,-9344,5.7290006131,-976,-174.512195122,2862,59.512195122,394,-24.0243902439,-42,0.1826086957,43,0.1869565217,109,-0.5317073171
7347705,18691.40625,-928,0.5689760883,-20288,-12.4389944819,-8576,5.2581238504,-1854,-173.7804878049,2850,113.0487804878,438,-26.7073170732,-42,0.1826086957,47,0.2043478261,106,-0.5170731707
7348345,18710.9375,320,-0.1961986511,-21280,-13.0472103004,-8944,5.4837522992,-1854,-173.7804878049,2850,113.0487804878,438,-26.7073170732,-46,0.2,51,0.2217391304,100,-0.487804878
7348985,18730.46875,496,-0.3041079093,-22576,-13.8418148375,-11904,7.2985898222,-1993,-161.4634146341,2648,121.5243902439,726,-44.2682926829,-44,0.1913043478,48,0.2086956522,101,-0.4926829268
7349625,18750,-48,0.0294297977,-23296,-14.2832618026,-13024,7.9852851012,-2158,-129.4512195122,2123,131.5853658537,1157,-70.5487804878,-47,0.2043478261,49,0.2130434783,97,-0.4731707317
7350265,18769.53125,224,-0.1373390558,-23248,-14.2538320049,-11968,7.3378295524,-2158,-129.4512195122,2123,131.5853658537,1157,-70.5487804878,-45,0.1956521739,52,0.2260869565,95,-0.4634146341
7350905,18789.0625,656,-0.4022072348,-22832,-13.9987737584,-12416,7.612507664,-2490,-105.7926829268,1735,151.8292682927,1405,-85.6707317073,-43,0.1869565217,52,0.2260869565,94,-0.4585365854
7351545,18808.59375,240,-0.1471489884,-23120,-14.1753525445,-15456,9.4763948498,-2490,-105.7926829268,1735,151.8292682927,1405,-85.6707317073,-45,0.1956521739,50,0.2173913043,95,-0.4634146341
7352185,18828.125,-608,0.3727774372,-24480,-15.0091968118,-16752,10.2709993869,-2173,-72.6829268293,1192,132.5,2277,-138.8414634146,-42,0.1826086957,49,0.2130434783,95,-0.4634146341
7352825,18847.65625,-1856,1.1379521766,-24608,-15.0876762722,-15776,9.6725935009,-2492,-40.7926829268,669,151.9512195122,2722,-165.9756097561,-37,0.1608695652,47,0.2043478261,94,-0.4585365854
7353465,18867.1875,-1680,1.0300429185,-24176,-14.8228080932,-14800,9.074187615,-2492,-40.7926829268,669,151.9512195122,2722,-165.9756097561,-32,0.1391304348,44,0.1913043478,96,-0.4682926829
7354105,18886.71875,256,-0.1569589209,-24528,-15.0386266094,-15136,9.2801961987,-2886,-16.4634146341,270,175.9756097561,3100,-189.0243902439,-31,0.1347826087,42,0.1826086957,98,-0.4780487805
7354745,18906.25,1376,-0.8436541999,-24912,-15.2740649908,-16016,9.8197424893,-2886,-16.4634146341,270,175.9756097561,3100,-189.0243902439,-26,0.1130434783,38,0.1652173913,102,-0.4975609756
7355385,18925.78125,1008,-0.6180257511,-24704,-15.1465358676,-15968,9.7903126916,-2328,11.2804878049,-185,141.9512195122,3578,-218.1707317073,-22,0.0956521739,34,0.147826087,104,-0.5073170732
7356025,18945.3125,1168,-0.7161250766,-24144,-14.8031882281,-15344,9.4077253219,-2106,29.8170731707,-489,128.4146341463,3607,-219.9390243902,-16,0.0695652174,27,0.1173913043,109,-0.5317073171
7356665,18964.84375,1968,-1.2066217045,-24224,-14.8522378909,-16464,10.0944206009,-2106,29.8170731707,-489,128.4146341463,3607,-219.9390243902,-16,0.0695652174,29,0.1260869565,112,-0.5463414634
7357305,18984.375,1728,-1.0594727161,-24096,-14.7737584304,-17472,10.7124463519,-1634,58.9024390244,-966,99.6341463415,3745,-228.3536585366,-12,0.052173913,19,0.0826086957,116,-0.5658536585
7357945,19003.90625,640,-0.3923973023,-23392,-14.3421213979,-17664,10.8301655426,-1546,86.7682926829,-1423,94.2682926829,3648,-222.4390243902,-7,0.0304347826,15,0.0652173913,117,-0.5707317073
7358585,19023.4375,544,-0.3335377069,-22400,-13.7339055794,-17744,10.8792152054,-1546,86.7682926829,-1423,94.2682926829,3648,-222.4390243902,-7,0.0304347826,3,0.0130434783,125,-0.6097560976
7359225,19042.96875,1632,-1.0006131208,-21984,-13.4788473329,-18288,11.2127529123,-1561,110.8536585366,-1818,95.1829268293,3422,-208.6585365854,-5,0.0217391304,0,0,126,-0.6146341463
7359865,19062.5,1904,-1.1673819742,-21280,-13.0472103004,-18064,11.0754138565,-1561,110.8536585366,-1818,95.1829268293,3422,-208.6585365854,-5,0.0217391304,-7,-0.0304347826,131,-0.6390243902
7360505,19082.03125,1376,-0.8436541999,-20416,-12.5174739424,-17584,10.7811158798,-1379,133.1707317073,-2184,84.0853658537,3185,-194.2073170732,-3,0.0130434783,-18,-0.0782608696,135,-0.6585365854
7361145,19101.5625,1264,-0.774984672,-19440,-11.9190680564,-16704,10.2415695892,-1739,155.243902439,-2546,106.0365853659,2642,-161.0975609756,-3,0.0130434783,-28,-0.1217391304,140,-0.6829268293
7361785,19121.09375,1872,-1.1477621091,-18368,-11.2618025751,-16160,9.9080318823,-1739,155.243902439,-2546,106.0365853659,2642,-161.0975609756,-6,0.0260869565,-31,-0.1347826087,141,-0.687804878
7362425,19140.625,2336,-1.4322501533,-17008,-10.4279583078,-15904,9.7510729614,-1881,173.2317073171,-2841,114.6951219512,2151,-131.1585365854,-9,0.0391304348,-40,-0.1739130435,145,-0.7073170732
7363065,19160.15625,2256,-1.3832004905,-15488,-9.4960147149,-15392,9.4371551196,-1881,173.2317073171,-2841,114.6951219512,2151,-131.1585365854,-10,0.0434782609,-50,-0.2173913043,149,-0.7268292683
7363705,19179.6875,2176,-1.3341508277,-14080,-8.6327406499,-15056,9.2311465359,-1925,185.1829268293,-3037,117.3780487805,1628,-99.2682926829,-17,0.0739130435,-56,-0.2434782609,151,-0.7365853659
7364345,19199.21875,2096,-1.2851011649,-12672,-7.7694665849,-14080,8.6327406499,-2104,191.6463414634,-3143,128.2926829268,1079,-65.7926829268,-18,0.0782608696,-62,-0.2695652174,150,-0.7317073171
7364985,19218.75,2768,-1.6971183323,-11344,-6.9552421827,-13456,8.2501532802,-2104,191.6463414634,-3143,128.2926829268,1079,-65.7926829268,-23,0.1,-72,-0.3130434783,153,-0.7463414634
7365625,19238.28125,3312,-2.0306560392,-10032,-6.1508277131,-13616,8.3482526058,-2128,192.3170731707,-3154,129.756097561,565,-34.4512195122,-27,0.1173913043,-76,-0.3304347826,152,-0.7414634146
7366265,19257.8125,3888,-2.3838136113,-8640,-5.2973635806,-13952,8.5542611895,-1833,192.4390243902,-3156,111.7682926829,184,-11.2195121951,-32,0.1391304348,-85,-0.3695652174,151,-0.7365853659
7366905,19277.34375,4032,-2.4721030043,-7056,-4.3261802575,-13584,8.3286327406,-1833,192.4390243902,-3156,111.7682926829,184,-11.2195121951,-31,0.1347826087,-92,-0.4,152,-0.7414634146
7367545,19296.875,3728,-2.2857142857,-5952,-3.6492949111,-13616,8.3482526058,-1586,184.8170731707,-3031,96.7073170732,-142,8.6585365854,-35,0.152173913,-101,-0.4391304348,149,-0.7268292683
7368185,19316.40625,3296,-2.0208461067,-4976,-3.0508890251,-13008,7.9754751686,-1586,184.8170731707,-3031,96.7073170732,-142,8.6585365854,-39,0.1695652174,-98,-0.4260869565,146,-0.712195122
7368825,19335.9375,3440,-2.1091354997,-3840,-2.3543838136,-11664,7.1514408338,-1796,180.8536585366,-2966,109.512195122,-585,35.6707317073,-41,0.1782608696,-104,-0.452173913,144,-0.7024390244
7369465,19355.46875,3440,-2.1091354997,-2608,-1.5990190067,-11024,6.7590435316,-1938,172.256097561,-2825,118.1707317073,-1009,61.5243902439,-41,0.1782608696,-111,-0.4826086957,140,-0.6829268293
