Shimmer,Shimmer,Shimmer,Shimmer,Shimmer,Shimmer,Shimmer,Shimmer,Shimmer,Shimmer,Shimmer,Shimmer,Shimmer,Shimmer,Shimmer,Shimmer,Shimmer,Shimmer,Shimmer,Shimmer
Timestamp,Timestamp,Wide Range Accelerometer X,Wide Range Accelerometer X,Wide Range Accelerometer Y,Wide Range Accelerometer Y,Wide Range Accelerometer Z,Wide Range Accelerometer Z,Gyroscope X,Gyroscope X,Gyroscope Y,Gyroscope Y,Gyroscope Z,Gyroscope Z,Magnetometer X,Magnetometer X,Magnetometer Y,Magnetometer Y,Magnetometer Z,Magnetometer Z
RAW,CAL,RAW,CAL,RAW,CAL,RAW,CAL,RAW,CAL,RAW,CAL,RAW,CAL,RAW,CAL,RAW,CAL,RAW,CAL
no units,mSecs,no units,m/(sec^2),no units,m/(sec^2),no units,m/(sec^2),no units,deg/sec,no units,deg/sec,no units,deg/sec,no units,local,no units,local,no units,local
8800505,4804.6875,-4928,3.0214592275,1328,0.8142244022,-15136,9.2801961987,-163,4.6341463415,-76,9.9390243902,-90,5.487804878,6,-0.0260869565,-47,-0.2043478261,125,-0.6097560976
8801145,4824.21875,-4640,2.8448804414,1360,0.8338442673,-15136,9.2801961987,-163,4.6341463415,-76,9.9390243902,-90,5.487804878,7,-0.0304347826,-50,-0.2173913043,126,-0.6146341463
8801785,4843.75,-4752,2.9135499693,1584,0.9711833231,-14928,9.1526670754,-158,5.487804878,-90,9.6341463415,-132,8.0487804878,8,-0.0347826087,-48,-0.2086956522,125,-0.6097560976
8802425,4863.28125,-4736,2.9037400368,1584,0.9711833231,-14704,9.0153280196,-158,5.487804878,-90,9.6341463415,-132,8.0487804878,8,-0.0347826087,-47,-0.2043478261,128,-0.6243902439
8803065,4882.8125,-4592,2.8154506438,1680,1.0300429185,-14752,9.0447578173,-218,3.1707317073,-52,13.2926829268,-133,8.1097560976,9,-0.0391304348,-55,-0.2391304348,127,-0.6195121951
8803705,4902.34375,-4368,2.678111588,1840,1.128142244,-14960,9.1722869405,-98,-0.7317073171,12,5.9756097561,-135,8.2317073171,8,-0.0347826087,-48,-0.2086956522,126,-0.6146341463
8804345,4921.875,-4304,2.6388718578,1984,1.216431637,-15296,9.3782955242,-98,-0.7317073171,12,5.9756097561,-135,8.2317073171,6,-0.0260869565,-49,-0.2130434783,129,-0.6292682927
8804985,4941.40625,-4512,2.766400981,2016,1.2360515021,-15392,9.4371551196,94,-4.3292682927,71,-5.7317073171,-95,5.7926829268,7,-0.0304347826,-49,-0.2130434783,129,-0.6292682927
8805625,4960.9375,-4800,2.942979767,1760,1.0790925812,-15456,9.4763948498,94,-4.3292682927,71,-5.7317073171,-95,5.7926829268,7,-0.0304347826,-44,-0.1913043478,126,-0.6146341463
8806265,4980.46875,-4880,2.9920294298,1344,0.8240343348,-15536,9.5254445126,156,-5.0609756098,83,-9.512195122,-22,1.3414634146,10,-0.0434782609,-49,-0.2130434783,127,-0.6195121951
8806905,5000,-4944,3.03126916,944,0.5787860208,-15840,9.7118332311,130,-4.2682926829,70,-7.9268292683,24,-1.4634146341,8,-0.0347826087,-50,-0.2173913043,126,-0.6146341463
8807545,5019.53125,-5024,3.0803188228,880,0.5395462906,-15872,9.7314530963,130,-4.2682926829,70,-7.9268292683,24,-1.4634146341,7,-0.0304347826,-46,-0.2,126,-0.6146341463
8808185,5039.0625,-4880,2.9920294298,1024,0.6278356836,-15744,9.6529736358,11,-1.7073170732,28,-0.6707317073,-13,0.7926829268,9,-0.0391304348,-51,-0.2217391304,127,-0.6195121951
8808825,5058.59375,-4848,2.9724095647,960,0.5885959534,-15712,9.6333537707,11,-1.7073170732,28,-0.6707317073,-13,0.7926829268,10,-0.0434782609,-50,-0.2173913043,128,-0.6243902439
8809465,5078.125,-4944,3.03126916,944,0.5787860208,-15376,9.427345187,-42,1.4024390244,-23,2.5609756098,-11,0.6707317073,9,-0.0391304348,-48,-0.2086956522,126,-0.6146341463
8810105,5097.65625,-4992,3.0606989577,1104,0.6768853464,-15392,9.4371551196,-109,3.1097560976,-51,6.6463414634,-12,0.7317073171,10,-0.0434782609,-47,-0.2043478261,126,-0.6146341463
8810745,5117.1875,-4816,2.9527896996,1088,0.6670754139,-15312,9.3881054568,-109,3.1097560976,-51,6.6463414634,-12,0.7317073171,8,-0.0347826087,-50,-0.2173913043,129,-0.6292682927
8811385,5136.71875,-4656,2.854690374,1216,0.7455548743,-15168,9.2998160638,-128,3.2317073171,-53,7.8048780488,-29,1.7682926829,6,-0.0260869565,-49,-0.2130434783,128,-0.6243902439
8812025,5156.25,-4720,2.8939301042,1312,0.8044144697,-15120,9.2703862661,-49,2.256097561,-37,2.987804878,-16,0.9756097561,7,-0.0304347826,-44,-0.1913043478,128,-0.6243902439
8812665,5175.78125,-4768,2.9233599019,1264,0.774984672,-15072,9.2409564684,-49,2.256097561,-37,2.987804878,-16,0.9756097561,6,-0.0260869565,-45,-0.1956521739,127,-0.6195121951
8813305,5195.3125,-4880,2.9920294298,1056,0.6474555487,-15136,9.2801961987,28,0.3658536585,-6,-1.7073170732,7,-0.4268292683,6,-0.0260869565,-45,-0.1956521739,127,-0.6195121951
8813945,5214.84375,-4896,3.0018393624,992,0.6082158185,-15312,9.3881054568,28,0.3658536585,-6,-1.7073170732,7,-0.4268292683,8,-0.0347826087,-51,-0.2217391304,127,-0.6195121951
8814585,5234.375,-5040,3.0901287554,816,0.5003065604,-15376,9.427345187,48,-0.4268292683,7,-2.9268292683,23,-1.4024390244,7,-0.0304347826,-49,-0.2130434783,128,-0.6243902439
8815225,5253.90625,-5056,3.0999386879,768,0.4708767627,-15456,9.4763948498,4,0.4268292683,-7,-0.243902439,56,-3.4146341463,9,-0.0391304348,-46,-0.2,127,-0.6195121951
8815865,5273.4375,-5200,3.1882280809,768,0.4708767627,-15568,9.5450643777,4,0.4268292683,-7,-0.243902439,56,-3.4146341463,8,-0.0347826087,-49,-0.2130434783,128,-0.6243902439
8816505,5292.96875,-5152,3.1587982833,832,0.5101164929,-15600,9.5646842428,-57,2.743902439,-45,3.4756097561,46,-2.8048780488,6,-0.0260869565,-46,-0.2,126,-0.6146341463
8817145,5312.5,-4944,3.03126916,1056,0.6474555487,-15664,9.603923973,-57,2.743902439,-45,3.4756097561,46,-2.8048780488,6,-0.0260869565,-52,-0.2260869565,128,-0.6243902439
8817785,5332.03125,-4544,2.7860208461,1136,0.6965052115,-15664,9.603923973,-94,4.8170731707,-79,5.7317073171,-10,0.6097560976,8,-0.0347826087,-48,-0.2086956522,127,-0.6195121951
8818425,5351.5625,-4432,2.7173513182,1072,0.6572654813,-15504,9.5058246475,22,5.3048780488,-87,-1.3414634146,-32,1.9512195122,8,-0.0347826087,-48,-0.2086956522,129,-0.6292682927
8819065,5371.09375,-4448,2.7271612508,1040,0.6376456162,-15616,9.5744941754,22,5.3048780488,-87,-1.3414634146,-32,1.9512195122,8,-0.0347826087,-47,-0.2043478261,128,-0.6243902439
8819705,5390.625,-4672,2.8645003066,864,0.5297363581,-15600,9.5646842428,103,5,-82,-6.2804878049,11,-0.6707317073,6,-0.0260869565,-53,-0.2304347826,129,-0.6292682927
8820345,5410.15625,-4688,2.8743102391,736,0.4512568976,-15552,9.5352544451,72,5.487804878,-90,-4.3902439024,57,-3.4756097561,7,-0.0304347826,-52,-0.2260869565,129,-0.6292682927
8820985,5429.6875,-4800,2.942979767,688,0.4218270999,-15504,9.5058246475,72,5.487804878,-90,-4.3902439024,57,-3.4756097561,6,-0.0260869565,-46,-0.2,127,-0.6195121951
8821625,5449.21875,-4944,3.03126916,896,0.5493562232,-15488,9.4960147149,-26,5.7926829268,-95,1.5853658537,73,-4.4512195122,6,-0.0260869565,-47,-0.2043478261,126,-0.6146341463
8822265,5468.75,-4992,3.0606989577,1072,0.6572654813,-15328,9.3979153893,-26,5.7926829268,-95,1.5853658537,73,-4.4512195122,6,-0.0260869565,-48,-0.2086956522,128,-0.6243902439
8822905,5488.28125,-4960,3.0410790926,1024,0.6278356836,-15136,9.2801961987,-188,8.2926829268,-136,11.4634146341,56,-3.4146341463,8,-0.0347826087,-48,-0.2086956522,127,-0.6195121951
8823545,5507.8125,-4640,2.8448804414,1168,0.7161250766,-14992,9.1919068056,-276,9.8780487805,-162,16.8292682927,-8,0.487804878,5,-0.0217391304,-48,-0.2086956522,127,-0.6195121951
8824185,5527.34375,-4192,2.5702023299,1184,0.7259350092,-14752,9.0447578173,-276,9.8780487805,-162,16.8292682927,-8,0.487804878,8,-0.0347826087,-51,-0.2217391304,130,-0.6341463415
8824825,5546.875,-3840,2.3543838136,1280,0.7847946045,-14656,8.9858982219,-164,8.1097560976,-133,10,-51,3.1097560976,6,-0.0260869565,-52,-0.2260869565,131,-0.6390243902
8825465,5566.40625,-3664,2.2464745555,1456,0.8927038627,-14736,9.0349478847,-164,8.1097560976,-133,10,-51,3.1097560976,5,-0.0217391304,-45,-0.1956521739,129,-0.6292682927
8826105,5585.9375,-3936,2.413243409,1440,0.8828939301,-14912,9.1428571429,83,4.6341463415,-76,-5.0609756098,-24,1.4634146341,8,-0.0347826087,-51,-0.2217391304,127,-0.6195121951
8826745,5605.46875,-4352,2.6683016554,1456,0.8927038627,-14896,9.1330472103,122,3.1707317073,-52,-7.4390243902,-1,0.0609756098,7,-0.0304347826,-51,-0.2217391304,129,-0.6292682927
8827385,5625,-4576,2.8056407112,1552,0.951563458,-14992,9.1919068056,122,3.1707317073,-52,-7.4390243902,-1,0.0609756098,8,-0.0347826087,-53,-0.2304347826,129,-0.6292682927
8828025,5644.53125,-4576,2.8056407112,1504,0.9221336603,-15136,9.2801961987,29,2.4390243902,-40,-1.7682926829,-16,0.9756097561,8,-0.0347826087,-52,-0.2260869565,127,-0.6195121951
8828665,5664.0625,-4576,2.8056407112,1296,0.7946045371,-15440,9.4665849172,4,3.1707317073,-52,-0.243902439,-39,2.3780487805,8,-0.0347826087,-52,-0.2260869565,127,-0.6195121951
8829305,5683.59375,-4624,2.8350705089,1360,0.8338442673,-15536,9.5254445126,4,3.1707317073,-52,-0.243902439,-39,2.3780487805,7,-0.0304347826,-51,-0.2217391304,129,-0.6292682927
8829945,5703.125,-4752,2.9135499693,1248,0.7651747394,-15568,9.5450643777,-23,4.6951219512,-77,1.4024390244,-49,2.987804878,6,-0.0260869565,-47,-0.2043478261,129,-0.6292682927
8830585,5722.65625,-4832,2.9625996321,1232,0.7553648069,-15504,9.5058246475,-23,4.6951219512,-77,1.4024390244,-49,2.987804878,8,-0.0347826087,-52,-0.2260869565,128,-0.6243902439
8831225,5742.1875,-4704,2.8841201717,1216,0.7455548743,-15440,9.4665849172,-64,5.9146341463,-97,3.9024390244,-43,2.6219512195,9,-0.0391304348,-52,-0.2260869565,128,-0.6243902439
8831865,5761.71875,-4528,2.7762109135,1200,0.7357449418,-15424,9.4567749847,39,5.5487804878,-91,-2.3780487805,-16,0.9756097561,7,-0.0304347826,-49,-0.2130434783,129,-0.6292682927
8832505,5781.25,-4560,2.7958307787,1216,0.7455548743,-15360,9.4175352544,39,5.5487804878,-91,-2.3780487805,-16,0.9756097561,6,-0.0260869565,-47,-0.2043478261,128,-0.6243902439
8833145,5800.78125,-4768,2.9233599019,1248,0.7651747394,-15296,9.3782955242,61,5.3658536585,-88,-3.7195121951,-7,0.4268292683,8,-0.0347826087,-53,-0.2304347826,129,-0.6292682927
8833785,5820.3125,-4992,3.0606989577,1216,0.7455548743,-15232,9.339055794,61,5.3658536585,-88,-3.7195121951,-7,0.4268292683,6,-0.0260869565,-46,-0.2,127,-0.6195121951
8834425,5839.84375,-4960,3.0410790926,1360,0.8338442673,-15264,9.3586756591,8,5.9146341463,-97,-0.487804878,-1,0.0609756098,7,-0.0304347826,-51,-0.2217391304,128,-0.6243902439
8835065,5859.375,-4800,2.942979767,1392,0.8534641324,-15248,9.3488657265,-48,5.487804878,-90,2.9268292683,30,-1.8292682927,5,-0.0217391304,-52,-0.2260869565,127,-0.6195121951
8835705,5878.90625,-4592,2.8154506438,1488,0.9123237278,-15248,9.3488657265,-48,5.487804878,-90,2.9268292683,30,-1.8292682927,6,-0.0260869565,-50,-0.2173913043,129,-0.6292682927
8836345,5898.4375,-4448,2.7271612508,1584,0.9711833231,-15152,9.2900061312,-41,4.4512195122,-73,2.5,46,-2.8048780488,6,-0.0260869565,-48,-0.2086956522,128,-0.6243902439
8836985,5917.96875,-4368,2.678111588,1584,0.9711833231,-15200,9.3194359289,-41,4.4512195122,-73,2.5,46,-2.8048780488,6,-0.0260869565,-49,-0.2130434783,128,-0.6243902439
8837625,5937.5,-4272,2.6192519926,1600,0.9809932557,-15232,9.339055794,-28,3.3536585366,-55,1.7073170732,59,-3.5975609756,5,-0.0217391304,-49,-0.2130434783,127,-0.6195121951
8838265,5957.03125,-4224,2.589822195,1584,0.9711833231,-15232,9.339055794,-1,3.4146341463,-56,0.0609756098,35,-2.1341463415,6,-0.0260869565,-49,-0.2130434783,129,-0.6292682927
8838905,5976.5625,-4304,2.6388718578,1520,0.9319435929,-15264,9.3586756591,-1,3.4146341463,-56,0.0609756098,35,-2.1341463415,7,-0.0304347826,-52,-0.2260869565,129,-0.6292682927
8839545,5996.09375,-4288,2.6290619252,1472,0.9025137952,-15184,9.3096259963,-12,3.9024390244,-64,0.7317073171,19,-1.1585365854,6,-0.0260869565,-49,-0.2130434783,129,-0.6292682927
8840185,6015.625,-4208,2.5800122624,1440,0.8828939301,-15296,9.3782955242,0,3.7804878049,-62,0,6,-0.3658536585,9,-0.0391304348,-51,-0.2217391304,129,-0.6292682927
8840825,6035.15625,-4208,2.5800122624,1408,0.863274065,-15328,9.3979153893,0,3.7804878049,-62,0,6,-0.3658536585,6,-0.0260869565,-53,-0.2304347826,130,-0.6341463415
8841465,6054.6875,-4272,2.6192519926,1440,0.8828939301,-15216,9.3292458614,0,3.7195121951,-61,0,-3,0.1829268293,5,-0.0217391304,-51,-0.2217391304,127,-0.6195121951
8842105,6074.21875,-4480,2.7467811159,1440,0.8828939301,-15152,9.2900061312,0,3.7195121951,-61,0,-3,0.1829268293,8,-0.0347826087,-53,-0.2304347826,129,-0.6292682927
8842745,6093.75,-4416,2.7075413857,1504,0.9221336603,-15104,9.2605763335,-39,3.7195121951,-61,2.3780487805,-23,1.4024390244,4,-0.0173913043,-47,-0.2043478261,128,-0.6243902439
8843385,6113.28125,-4208,2.5800122624,1504,0.9221336603,-15120,9.2703862661,-26,3.5975609756,-59,1.5853658537,-33,2.012195122,7,-0.0304347826,-51,-0.2217391304,128,-0.6243902439
8844025,6132.8125,-4192,2.5702023299,1456,0.8927038627,-15200,9.3194359289,-26,3.5975609756,-59,1.5853658537,-33,2.012195122,6,-0.0260869565,-50,-0.2173913043,129,-0.6292682927
8844665,6152.34375,-4400,2.6977314531,1456,0.8927038627,-15168,9.2998160638,42,3.2926829268,-54,-2.5609756098,-34,2.0731707317,8,-0.0347826087,-53,-0.2304347826,128,-0.6243902439
8845305,6171.875,-4656,2.854690374,1520,0.9319435929,-15088,9.250766401,42,3.2926829268,-54,-2.5609756098,-34,2.0731707317,5,-0.0217391304,-47,-0.2043478261,128,-0.6243902439
8845945,6191.40625,-4688,2.8743102391,1600,0.9809932557,-15232,9.339055794,4,2.8658536585,-47,-0.243902439,-34,2.0731707317,6,-0.0260869565,-49,-0.2130434783,129,-0.6292682927
8846585,6210.9375,-4544,2.7860208461,1616,0.9908031882,-15248,9.3488657265,-27,2.3170731707,-38,1.6463414634,-2,0.1219512195,7,-0.0304347826,-49,-0.2130434783,129,-0.6292682927
8847225,6230.46875,-4512,2.766400981,1536,0.9417535254,-15296,9.3782955242,-27,2.3170731707,-38,1.6463414634,-2,0.1219512195,8,-0.0347826087,-54,-0.2347826087,129,-0.6292682927
8847865,6250,-4560,2.7958307787,1504,0.9221336603,-15312,9.3881054568,12,1.6463414634,-27,-0.7317073171,26,-1.5853658537,8,-0.0347826087,-51,-0.2217391304,127,-0.6195121951
8848505,6269.53125,-4560,2.7958307787,1456,0.8927038627,-15296,9.3782955242,-23,1.3414634146,-22,1.4024390244,34,-2.0731707317,6,-0.0260869565,-50,-0.2173913043,129,-0.6292682927
8849145,6289.0625,-4576,2.8056407112,1392,0.8534641324,-15392,9.4371551196,-23,1.3414634146,-22,1.4024390244,34,-2.0731707317,7,-0.0304347826,-49,-0.2130434783,129,-0.6292682927
8849785,6308.59375,-4416,2.7075413857,1456,0.8927038627,-15456,9.4763948498,-40,2.012195122,-33,2.4390243902,31,-1.8902439024,7,-0.0304347826,-53,-0.2304347826,130,-0.6341463415
8850425,6328.125,-4368,2.678111588,1472,0.9025137952,-15488,9.4960147149,-40,2.012195122,-33,2.4390243902,31,-1.8902439024,5,-0.0217391304,-51,-0.2217391304,129,-0.6292682927
8851065,6347.65625,-4400,2.6977314531,1392,0.8534641324,-15456,9.4763948498,-2,2.3170731707,-38,0.1219512195,15,-0.9146341463,8,-0.0347826087,-51,-0.2217391304,129,-0.6292682927
8851705,6367.1875,-4400,2.6977314531,1360,0.8338442673,-15408,9.4469650521,6,2.987804878,-49,-0.3658536585,7,-0.4268292683,5,-0.0217391304,-48,-0.2086956522,129,-0.6292682927
8852345,6386.71875,-4432,2.7173513182,1440,0.8828939301,-15376,9.427345187,6,2.987804878,-49,-0.3658536585,7,-0.4268292683,7,-0.0304347826,-52,-0.2260869565,129,-0.6292682927
8852985,6406.25,-2672,1.638258737,1888,1.1575720417,-576,0.353157572,1395,-27.9268292683,458,-85.0609756098,-141,8.5975609756,9,-0.0391304348,-47,-0.2043478261,128,-0.6243902439
8853625,6425.78125,-3504,2.1483752299,4032,2.4721030043,-9968,6.1115879828,1395,-27.9268292683,458,-85.0609756098,-141,8.5975609756,10,-0.0434782609,-49,-0.2130434783,124,-0.6048780488
8854265,6445.3125,-9360,5.7388105457,3312,2.0306560392,-13936,8.5444512569,1826,-32.8048780488,538,-111.3414634146,406,-24.756097561,10,-0.0434782609,-48,-0.2086956522,121,-0.5902439024
8854905,6464.84375,-10768,6.6020846107,848,0.5199264255,-15760,9.6627835684,-657,0.6097560976,-10,40.0609756098,164,-10,11,-0.047826087,-51,-0.2217391304,122,-0.5951219512
8855545,6484.375,-8544,5.2385039853,128,0.0784794605,-16224,9.9472716125,-657,0.6097560976,-10,40.0609756098,164,-10,12,-0.052173913,-50,-0.2173913043,124,-0.6048780488
8856185,6503.90625,-2960,1.814837523,272,0.1667688535,-15216,9.3292458614,-1678,14.5731707317,-239,102.3170731707,-14,0.8536585366,6,-0.0260869565,-45,-0.1956521739,127,-0.6195121951
8856825,6523.4375,-2384,1.461679951,896,0.5493562232,-15712,9.6333537707,-286,-7.0731707317,116,17.4390243902,189,-11.5243902439,6,-0.0260869565,-50,-0.2173913043,128,-0.6243902439
8857465,6542.96875,-3616,2.2170447578,1056,0.6474555487,-16592,10.1729000613,-286,-7.0731707317,116,17.4390243902,189,-11.5243902439,4,-0.0173913043,-50,-0.2173913043,129,-0.6292682927
8858105,6562.5,-4368,2.678111588,896,0.5493562232,-16944,10.3887185776,-154,2.3780487805,-39,9.3902439024,108,-6.5853658537,7,-0.0304347826,-48,-0.2086956522,129,-0.6292682927
8858745,6582.03125,-4000,2.4524831392,1024,0.6278356836,-16560,10.1532801962,-154,2.3780487805,-39,9.3902439024,108,-6.5853658537,6,-0.0260869565,-48,-0.2086956522,129,-0.6292682927
8859385,6601.5625,-3536,2.167995095,992,0.6082158185,-16192,9.9276517474,-163,5.4268292683,-89,9.9390243902,80,-4.8780487805,6,-0.0260869565,-50,-0.2173913043,132,-0.643902439
8860025,6621.09375,-3504,2.1483752299,912,0.5591661557,-16160,9.9080318823,32,6.6463414634,-109,-1.9512195122,12,-0.7317073171,6,-0.0260869565,-49,-0.2130434783,130,-0.6341463415
8860665,6640.625,-3600,2.2072348253,1008,0.6180257511,-15856,9.7216431637,32,6.6463414634,-109,-1.9512195122,12,-0.7317073171,4,-0.0173913043,-48,-0.2086956522,131,-0.6390243902
8861305,6660.15625,-4000,2.4524831392,1088,0.6670754139,-15520,9.51563458,51,7.012195122,-115,-3.1097560976,6,-0.3658536585,4,-0.0173913043,-54,-0.2347826087,131,-0.6390243902
8861945,6679.6875,-4224,2.589822195,1104,0.6768853464,-15408,9.4469650521,51,7.012195122,-115,-3.1097560976,6,-0.3658536585,6,-0.0260869565,-48,-0.2086956522,131,-0.6390243902
8862585,6699.21875,-4064,2.4917228694,1088,0.6670754139,-15376,9.427345187,-56,7.9268292683,-130,3.4146341463,-19,1.1585365854,6,-0.0260869565,-50,-0.2173913043,131,-0.6390243902
8863225,6718.75,-3824,2.3445738811,1232,0.7553648069,-15360,9.4175352544,-34,8.2926829268,-136,2.0731707317,-32,1.9512195122,5,-0.0217391304,-50,-0.2173913043,130,-0.6341463415
8863865,6738.28125,-3616,2.2170447578,1280,0.7847946045,-15312,9.3881054568,-34,8.2926829268,-136,2.0731707317,-32,1.9512195122,5,-0.0217391304,-55,-0.2391304348,132,-0.643902439
8864505,6757.8125,-3712,2.2759043532,1232,0.7553648069,-15360,9.4175352544,71,7.3780487805,-121,-4.3292682927,-37,2.256097561,5,-0.0217391304,-51,-0.2217391304,131,-0.6390243902
8865145,6777.34375,-3968,2.4328632741,1232,0.7553648069,-15456,9.4763948498,71,7.3780487805,-121,-4.3292682927,-37,2.256097561,5,-0.0217391304,-53,-0.2304347826,130,-0.6341463415
8865785,6796.875,-4288,2.6290619252,1248,0.7651747394,-15456,9.4763948498,59,7.3170731707,-120,-3.5975609756,-55,3.3536585366,5,-0.0217391304,-50,-0.2173913043,130,-0.6341463415
8866425,6816.40625,-4288,2.6290619252,1360,0.8338442673,-15392,9.4371551196,-95,8.3536585366,-137,5.7926829268,-67,4.0853658537,5,-0.0217391304,-48,-0.2086956522,129,-0.6292682927
8867065,6835.9375,672,-0.4120171674,2368,1.4518700184,-15344,9.4077253219,-95,8.3536585366,-137,5.7926829268,-67,4.0853658537,4,-0.0173913043,-49,-0.2130434783,129,-0.6292682927
8867705,6855.46875,-2864,1.7559779277,2544,1.5597792765,-14160,8.6817903127,1155,-14.756097561,242,-70.4268292683,-203,12.3780487805,8,-0.0347826087,-50,-0.2173913043,128,-0.6243902439
8868345,6875,-7824,4.7970570202,3136,1.9227467811,-15104,9.2605763335,375,-1.0365853659,17,-22.8658536585,127,-7.743902439,8,-0.0347826087,-49,-0.2130434783,128,-0.6243902439
8868985,6894.53125,-8432,5.1698344574,1712,1.0496627836,-15568,9.5450643777,375,-1.0365853659,17,-22.8658536585,127,-7.743902439,7,-0.0304347826,-53,-0.2304347826,127,-0.6195121951
8869625,6914.0625,-6288,3.8553034948,1520,0.9319435929,-15760,9.6627835684,-1081,10.6097560976,-174,65.9146341463,-39,2.3780487805,9,-0.0391304348,-50,-0.2173913043,128,-0.6243902439
8870265,6933.59375,-3664,2.2464745555,1376,0.8436541999,-15616,9.5744941754,-1081,10.6097560976,-174,65.9146341463,-39,2.3780487805,6,-0.0260869565,-46,-0.2,130,-0.6341463415
8870905,6953.125,-2752,1.6873083998,352,0.2158185162,-15664,9.603923973,-674,2.3170731707,-38,41.0975609756,-18,1.0975609756,5,-0.0217391304,-51,-0.2217391304,129,-0.6292682927
8871545,6972.65625,-3424,2.0993255671,336,0.2060085837,-15968,9.7903126916,110,0.1219512195,-2,-6.7073170732,32,-1.9512195122,4,-0.0173913043,-50,-0.2173913043,130,-0.6341463415
8872185,6992.1875,-4288,2.6290619252,1152,0.7063151441,-16176,9.9178418148,110,0.1219512195,-2,-6.7073170732,32,-1.9512195122,5,-0.0217391304,-47,-0.2043478261,130,-0.6341463415
8872825,7011.71875,-4400,2.6977314531,1184,0.7259350092,-16080,9.8589822195,90,3.1707317073,-52,-5.487804878,12,-0.7317073171,4,-0.0173913043,-51,-0.2217391304,131,-0.6390243902
8873465,7031.25,-4112,2.5211526671,960,0.5885959534,-16016,9.8197424893,90,3.1707317073,-52,-5.487804878,12,-0.7317073171,6,-0.0260869565,-52,-0.2260869565,130,-0.6341463415
8874105,7050.78125,-4096,2.5113427345,992,0.6082158185,-15904,9.7510729614,111,4.4512195122,-73,-6.7682926829,-2,0.1219512195,6,-0.0260869565,-52,-0.2260869565,130,-0.6341463415
8874745,7070.3125,-4400,2.6977314531,1024,0.6278356836,-15760,9.6627835684,118,4.9390243902,-81,-7.1951219512,-2,0.1219512195,7,-0.0304347826,-54,-0.2347826087,129,-0.6292682927
8875385,7089.84375,-4784,2.9331698345,992,0.6082158185,-15568,9.5450643777,118,4.9390243902,-81,-7.1951219512,-2,0.1219512195,7,-0.0304347826,-55,-0.2391304348,130,-0.6341463415
8876025,7109.375,-4608,2.8252605763,1008,0.6180257511,-15424,9.4567749847,-79,6.1585365854,-101,4.8170731707,-23,1.4024390244,7,-0.0304347826,-49,-0.2130434783,130,-0.6341463415
8876665,7128.90625,-4272,2.6192519926,1168,0.7161250766,-15264,9.3586756591,-125,7.012195122,-115,7.6219512195,-27,1.6463414634,6,-0.0260869565,-49,-0.2130434783,131,-0.6390243902
8877305,7148.4375,-3936,2.413243409,1184,0.7259350092,-15216,9.3292458614,-125,7.012195122,-115,7.6219512195,-27,1.6463414634,7,-0.0304347826,-52,-0.2260869565,131,-0.6390243902
8877945,7167.96875,-3888,2.3838136113,1280,0.7847946045,-15136,9.2801961987,22,5.4268292683,-89,-1.3414634146,-9,0.5487804878,6,-0.0260869565,-54,-0.2347826087,131,-0.6390243902
8878585,7187.5,-4016,2.4622930717,1296,0.7946045371,-15200,9.3194359289,22,5.4268292683,-89,-1.3414634146,-9,0.5487804878,5,-0.0217391304,-49,-0.2130434783,130,-0.6341463415
8879225,7207.03125,-4256,2.6094420601,1328,0.8142244022,-15184,9.3096259963,108,4.3292682927,-71,-6.5853658537,-11,0.6707317073,4,-0.0173913043,-51,-0.2217391304,130,-0.6341463415
8879865,7226.5625,9248,-5.6701410178,-15664,-9.603923973,-15136,9.2801961987,59,3.2317073171,-53,-3.5975609756,2,-0.1219512195,4,-0.0173913043,-46,-0.2,128,-0.6243902439
8880505,7246.09375,-864,0.5297363581,2112,1.2949110975,-14608,8.9564684243,59,3.2317073171,-53,-3.5975609756,2,-0.1219512195,8,-0.0347826087,-52,-0.2260869565,129,-0.6292682927
8881145,7265.625,-4208,2.5800122624,3600,2.2072348253,-14464,8.8681790313,1191,-6.0365853659,99,-72.6219512195,-50,3.0487804878,7,-0.0304347826,-51,-0.2217391304,126,-0.6146341463
8881785,7285.15625,-8560,5.2483139178,2496,1.5303494788,-15824,9.7020232986,1191,-6.0365853659,99,-72.6219512195,-50,3.0487804878,11,-0.047826087,-50,-0.2173913043,124,-0.6048780488
8882425,7304.6875,-7360,4.5125689761,1008,0.6180257511,-15984,9.8001226242,-189,-0.7926829268,13,11.5243902439,117,-7.1341463415,11,-0.047826087,-53,-0.2304347826,125,-0.6097560976
8883065,7324.21875,-6560,4.0220723483,688,0.4218270999,-15856,9.7216431637,-970,7.6829268293,-126,59.1463414634,-12,0.7317073171,9,-0.0391304348,-47,-0.2043478261,127,-0.6195121951
8883705,7343.75,-5184,3.1784181484,480,0.2942979767,-16016,9.8197424893,-970,7.6829268293,-126,59.1463414634,-12,0.7317073171,9,-0.0391304348,-50,-0.2173913043,127,-0.6195121951
8884345,7363.28125,-4832,2.9625996321,768,0.4708767627,-15392,9.4371551196,-714,10,-164,43.5365853659,-87,5.3048780488,7,-0.0304347826,-49,-0.2130434783,130,-0.6341463415
8884985,7382.8125,-3680,2.256284488,688,0.4218270999,-15808,9.692213366,-301,7.8658536585,-129,18.3536585366,-40,2.4390243902,5,-0.0217391304,-52,-0.2260869565,131,-0.6390243902
8885625,7402.34375,-3376,2.0698957695,1040,0.6376456162,-15920,9.7608828939,-301,7.8658536585,-129,18.3536585366,-40,2.4390243902,3,-0.0130434783,-49,-0.2130434783,129,-0.6292682927
8886265,7421.875,-3568,2.1876149601,1136,0.6965052115,-15888,9.7412630288,2,7.4390243902,-122,-0.1219512195,-21,1.2804878049,6,-0.0260869565,-50,-0.2173913043,130,-0.6341463415
8886905,7441.40625,-3760,2.3053341508,1184,0.7259350092,-15664,9.603923973,2,7.4390243902,-122,-0.1219512195,-21,1.2804878049,6,-0.0260869565,-52,-0.2260869565,132,-0.643902439
8887545,7460.9375,-3984,2.4426732066,1152,0.7063151441,-15424,9.4567749847,102,7.012195122,-115,-6.2195121951,-43,2.6219512195,5,-0.0217391304,-53,-0.2304347826,131,-0.6390243902
8888185,7480.46875,-4304,2.6388718578,1216,0.7455548743,-15168,9.2998160638,32,6.2195121951,-102,-1.9512195122,-51,3.1097560976,6,-0.0260869565,-53,-0.2304347826,130,-0.6341463415
8888825,7500,-4432,2.7173513182,1264,0.774984672,-15072,9.2409564684,32,6.2195121951,-102,-1.9512195122,-51,3.1097560976,4,-0.0173913043,-47,-0.2043478261,130,-0.6341463415
8889465,7519.53125,-4368,2.678111588,1312,0.8044144697,-15040,9.2213366033,-50,5.5487804878,-91,3.0487804878,-32,1.9512195122,6,-0.0260869565,-49,-0.2130434783,131,-0.6390243902
8890105,7539.0625,-4256,2.6094420601,1376,0.8436541999,-15056,9.2311465359,-50,5.5487804878,-91,3.0487804878,-32,1.9512195122,5,-0.0217391304,-48,-0.2086956522,130,-0.6341463415
8890745,7558.59375,-4000,2.4524831392,1440,0.8828939301,-15136,9.2801961987,-25,4.1463414634,-68,1.5243902439,-6,0.3658536585,7,-0.0304347826,-53,-0.2304347826,132,-0.643902439
8891385,7578.125,-3856,2.3641937462,1472,0.9025137952,-15216,9.3292458614,59,3.6585365854,-60,-3.5975609756,-9,0.5487804878,6,-0.0260869565,-52,-0.2260869565,131,-0.6390243902
8892025,7597.65625,-3968,2.4328632741,1472,0.9025137952,-15376,9.427345187,59,3.6585365854,-60,-3.5975609756,-9,0.5487804878,4,-0.0173913043,-48,-0.2086956522,130,-0.6341463415
8892665,7617.1875,-4144,2.5407725322,1424,0.8730839975,-15520,9.51563458,60,3.6585365854,-60,-3.6585365854,-33,2.012195122,4,-0.0173913043,-48,-0.2086956522,129,-0.6292682927
8893305,7636.71875,-4288,2.6290619252,1392,0.8534641324,-15648,9.5941140405,60,3.6585365854,-60,-3.6585365854,-33,2.012195122,5,-0.0217391304,-50,-0.2173913043,129,-0.6292682927
8893945,7656.25,-4256,2.6094420601,1264,0.774984672,-15872,9.7314530963,-23,4.8780487805,-80,1.4024390244,-39,2.3780487805,4,-0.0173913043,-49,-0.2130434783,130,-0.6341463415
8894585,7675.78125,-7104,4.3556100552,5216,3.1980380135,-10976,6.7296137339,1712,124.3902439024,-2040,-104.3902439024,-939,57.256097561,6,-0.0260869565,-50,-0.2173913043,131,-0.6390243902
8895225,7695.3125,-3296,2.0208461067,2144,1.3145309626,-11728,7.1906805641,1712,124.3902439024,-2040,-104.3902439024,-939,57.256097561,6,-0.0260869565,-48,-0.2086956522,127,-0.6195121951
8895865,7714.84375,-6784,4.159411404,4624,2.8350705089,-14624,8.9662783568,1467,-5.7317073171,94,-89.4512195122,-90,5.487804878,9,-0.0391304348,-50,-0.2173913043,125,-0.6097560976
8896505,7734.375,-8064,4.9442060086,3408,2.0895156346,-15696,9.6235438381,-249,0.243902439,-4,15.1829268293,102,-6.2195121951,10,-0.0434782609,-53,-0.2304347826,126,-0.6146341463
8897145,7753.90625,-7184,4.404659718,1440,0.8828939301,-15904,9.7510729614,-249,0.243902439,-4,15.1829268293,102,-6.2195121951,7,-0.0304347826,-44,-0.1913043478,124,-0.6048780488
8897785,7773.4375,-6080,3.7277743716,576,0.353157572,-15904,9.7510729614,-798,8.2317073171,-135,48.6585365854,57,-3.4756097561,7,-0.0304347826,-48,-0.2086956522,126,-0.6146341463
8898425,7792.96875,-4480,2.7467811159,224,0.1373390558,-15648,9.5941140405,-798,8.2317073171,-135,48.6585365854,57,-3.4756097561,6,-0.0260869565,-50,-0.2173913043,129,-0.6292682927
8899065,7812.5,-3888,2.3838136113,224,0.1373390558,-15504,9.5058246475,-610,1.7073170732,-28,37.1951219512,14,-0.8536585366,4,-0.0173913043,-49,-0.2130434783,130,-0.6341463415
8899705,7832.03125,-3488,2.1385652974,832,0.5101164929,-15696,9.6235438381,-136,5.9756097561,-98,8.2926829268,0,0,7,-0.0304347826,-49,-0.2130434783,129,-0.6292682927
8900345,7851.5625,-3696,2.2660944206,1296,0.7946045371,-15712,9.6333537707,-136,5.9756097561,-98,8.2926829268,0,0,8,-0.0347826087,-50,-0.2173913043,130,-0.6341463415
8900985,7871.09375,-3840,2.3543838136,1360,0.8338442673,-15600,9.5646842428,134,4.9390243902,-81,-8.1707317073,29,-1.7682926829,6,-0.0260869565,-53,-0.2304347826,131,-0.6390243902
8901625,7890.625,-4080,2.501532802,1232,0.7553648069,-15376,9.427345187,134,4.9390243902,-81,-8.1707317073,29,-1.7682926829,5,-0.0217391304,-46,-0.2,127,-0.6195121951
8902265,7910.15625,-4416,2.7075413857,1296,0.7946045371,-15200,9.3194359289,185,5.0609756098,-83,-11.2804878049,-3,0.1829268293,7,-0.0304347826,-51,-0.2217391304,129,-0.6292682927
8902905,7929.6875,-4640,2.8448804414,1328,0.8142244022,-15216,9.3292458614,53,4.8780487805,-80,-3.2317073171,-14,0.8536585366,5,-0.0217391304,-49,-0.2130434783,128,-0.6243902439
8903545,7949.21875,-4736,2.9037400368,1424,0.8730839975,-15152,9.2900061312,53,4.8780487805,-80,-3.2317073171,-14,0.8536585366,6,-0.0260869565,-47,-0.2043478261,126,-0.6146341463
8904185,7968.75,-4528,2.7762109135,1424,0.8730839975,-15136,9.2801961987,-102,4.0243902439,-66,6.2195121951,8,-0.487804878,5,-0.0217391304,-46,-0.2,128,-0.6243902439
8904825,7988.28125,-4208,2.5800122624,1440,0.8828939301,-15232,9.339055794,-54,3.7195121951,-61,3.2926829268,23,-1.4024390244,7,-0.0304347826,-49,-0.2130434783,127,-0.6195121951
8905465,8007.8125,-3968,2.4328632741,1488,0.9123237278,-15248,9.3488657265,-54,3.7195121951,-61,3.2926829268,23,-1.4024390244,5,-0.0217391304,-51,-0.2217391304,130,-0.6341463415
8906105,8027.34375,-4144,2.5407725322,1488,0.9123237278,-15232,9.339055794,81,2.5,-41,-4.9390243902,43,-2.6219512195,6,-0.0260869565,-47,-0.2043478261,129,-0.6292682927
8906745,8046.875,-4352,2.6683016554,1360,0.8338442673,-15280,9.3684855917,81,2.5,-41,-4.9390243902,43,-2.6219512195,6,-0.0260869565,-47,-0.2043478261,129,-0.6292682927
8907385,8066.40625,-4400,2.6977314531,1360,0.8338442673,-15472,9.4862047823,50,2.987804878,-49,-3.0487804878,20,-1.2195121951,3,-0.0130434783,-46,-0.2,129,-0.6292682927
8908025,8085.9375,-4240,2.5996321275,1376,0.8436541999,-15680,9.6137339056,-86,-52.1951219512,856,5.243902439,472,-28.7804878049,7,-0.0304347826,-50,-0.2173913043,129,-0.6292682927
8908665,8105.46875,-4112,2.5211526671,6096,3.7375843041,-13856,8.4954015941,-86,-52.1951219512,856,5.243902439,472,-28.7804878049,5,-0.0217391304,-47,-0.2043478261,125,-0.6097560976
8909305,8125,-4496,2.7565910484,2896,1.7755977928,-15104,9.2605763335,1186,1.3414634146,-22,-72.3170731707,15,-0.9146341463,8,-0.0347826087,-51,-0.2217391304,124,-0.6048780488
8909945,8144.53125,-7472,4.581238504,2640,1.6186388719,-15760,9.6627835684,1186,1.3414634146,-22,-72.3170731707,15,-0.9146341463,8,-0.0347826087,-46,-0.2,123,-0.6
8910585,8164.0625,-8304,5.0913549969,1744,1.0692826487,-15968,9.7903126916,13,2.4390243902,-40,-0.7926829268,171,-10.4268292683,8,-0.0347826087,-43,-0.1869565217,124,-0.6048780488
8911225,8183.59375,-6656,4.0809319436,1264,0.774984672,-15600,9.5646842428,-812,8.2926829268,-136,49.512195122,89,-5.4268292683,8,-0.0347826087,-47,-0.2043478261,123,-0.6
8911865,8203.125,-5248,3.2176578786,1056,0.6474555487,-15616,9.5744941754,-812,8.2926829268,-136,49.512195122,89,-5.4268292683,6,-0.0260869565,-50,-0.2173913043,126,-0.6146341463
8912505,8222.65625,-3760,2.3053341508,384,0.2354383814,-15456,9.4763948498,-635,9.8780487805,-162,38.7195121951,57,-3.4756097561,6,-0.0260869565,-44,-0.1913043478,127,-0.6195121951
8913145,8242.1875,-3648,2.2366646229,448,0.2746781116,-15360,9.4175352544,-217,6.2195121951,-102,13.2317073171,21,-1.2804878049,3,-0.0130434783,-51,-0.2217391304,129,-0.6292682927
8913785,8261.71875,-3488,2.1385652974,1120,0.686695279,-15296,9.3782955242,-217,6.2195121951,-102,13.2317073171,21,-1.2804878049,7,-0.0304347826,-51,-0.2217391304,129,-0.6292682927
8914425,8281.25,-3824,2.3445738811,1360,0.8338442673,-15152,9.2900061312,48,4.2073170732,-69,-2.9268292683,25,-1.5243902439,6,-0.0260869565,-45,-0.1956521739,128,-0.6243902439
8915065,8300.78125,-4048,2.4819129368,1344,0.8240343348,-15104,9.2605763335,48,4.2073170732,-69,-2.9268292683,25,-1.5243902439,6,-0.0260869565,-54,-0.2347826087,131,-0.6390243902
8915705,8320.3125,-4160,2.5505824647,1472,0.9025137952,-15104,9.2605763335,70,3.6585365854,-60,-4.2682926829,-2,0.1219512195,6,-0.0260869565,-54,-0.2347826087,129,-0.6292682927
8916345,8339.84375,-4256,2.6094420601,1456,0.8927038627,-15136,9.2801961987,13,3.1707317073,-52,-0.7926829268,-14,0.8536585366,8,-0.0347826087,-52,-0.2260869565,129,-0.6292682927
8916985,8359.375,-4304,2.6388718578,1392,0.8534641324,-15088,9.250766401,13,3.1707317073,-52,-0.7926829268,-14,0.8536585366,6,-0.0260869565,-49,-0.2130434783,127,-0.6195121951
8917625,8378.90625,-4320,2.6486817903,1408,0.863274065,-15120,9.2703862661,-13,2.8048780488,-46,0.7926829268,-13,0.7926829268,5,-0.0217391304,-46,-0.2,129,-0.6292682927
8918265,8398.4375,-4368,2.678111588,1504,0.9221336603,-15136,9.2801961987,-13,2.8048780488,-46,0.7926829268,-13,0.7926829268,7,-0.0304347826,-52,-0.2260869565,129,-0.6292682927
8918905,8417.96875,-4288,2.6290619252,1520,0.9319435929,-15216,9.3292458614,-8,2.3780487805,-39,0.487804878,-15,0.9146341463,7,-0.0304347826,-49,-0.2130434783,127,-0.6195121951
8919545,8437.5,-4336,2.6584917229,1456,0.8927038627,-15232,9.339055794,32,1.9512195122,-32,-1.9512195122,-2,0.1219512195,7,-0.0304347826,-48,-0.2086956522,130,-0.6341463415
8920185,8457.03125,-4368,2.678111588,1344,0.8240343348,-15312,9.3881054568,32,1.9512195122,-32,-1.9512195122,-2,0.1219512195,7,-0.0304347826,-48,-0.2086956522,130,-0.6341463415
8920825,8476.5625,-4464,2.7369711833,1344,0.8240343348,-15584,9.5548743102,39,1.8902439024,-31,-2.3780487805,-7,0.4268292683,8,-0.0347826087,-54,-0.2347826087,130,-0.6341463415
8921465,8496.09375,-4496,2.7565910484,1392,0.8534641324,-15680,9.6137339056,39,1.8902439024,-31,-2.3780487805,-7,0.4268292683,8,-0.0347826087,-54,-0.2347826087,130,-0.6341463415
8922105,8515.625,-4544,2.7860208461,1424,0.8730839975,-15776,9.6725935009,27,2.5609756098,-42,-1.6463414634,2,-0.1219512195,5,-0.0217391304,-47,-0.2043478261,127,-0.6195121951
8922745,8535.15625,-4480,2.7467811159,1344,0.8240343348,-15920,9.7608828939,14,4.1463414634,-68,-0.8536585366,-1,0.0609756098,6,-0.0260869565,-49,-0.2130434783,129,-0.6292682927
8923385,8554.6875,-4432,2.7173513182,1328,0.8142244022,-15952,9.780502759,14,4.1463414634,-68,-0.8536585366,-1,0.0609756098,7,-0.0304347826,-54,-0.2347826087,130,-0.6341463415
8924025,8574.21875,-4432,2.7173513182,1280,0.7847946045,-15920,9.7608828939,70,5.8536585366,-96,-4.2682926829,-12,0.7317073171,8,-0.0347826087,-51,-0.2217391304,127,-0.6195121951
8924665,8593.75,-6512,3.9926425506,2528,1.549969344,-11056,6.7786633967,2063,78.7804878049,-1292,-125.7926829268,-518,31.5853658537,5,-0.0217391304,-49,-0.2130434783,127,-0.6195121951
8925305,8613.28125,-4096,2.5113427345,4080,2.501532802,-11936,7.3182096873,2063,78.7804878049,-1292,-125.7926829268,-518,31.5853658537,9,-0.0391304348,-47,-0.2043478261,123,-0.6
8925945,8632.8125,-8368,5.1305947272,3328,2.0404659718,-14320,8.7798896383,1300,-8.4756097561,139,-79.2682926829,249,-15.1829268293,11,-0.047826087,-46,-0.2,123,-0.6
8926585,8652.34375,-9984,6.1213979154,1472,0.9025137952,-15328,9.3979153893,1300,-8.4756097561,139,-79.2682926829,249,-15.1829268293,13,-0.0565217391,-52,-0.2260869565,121,-0.5902439024
8927225,8671.875,-8944,5.4837522992,944,0.5787860208,-15504,9.5058246475,-790,10.243902439,-168,48.1707317073,70,-4.2682926829,10,-0.0434782609,-50,-0.2173913043,122,-0.5951219512
8927865,8691.40625,-6608,4.0515021459,736,0.4512568976,-15696,9.6235438381,-1658,16.5243902439,-271,101.0975609756,-16,0.9756097561,8,-0.0347826087,-50,-0.2173913043,125,-0.6097560976
8928505,8710.9375,-2448,1.5009196812,1440,0.8828939301,-15232,9.339055794,-1658,16.5243902439,-271,101.0975609756,-16,0.9756097561,6,-0.0260869565,-51,-0.2217391304,129,-0.6292682927
8929145,8730.46875,-1712,1.0496627836,624,0.3825873697,-15344,9.4077253219,-486,2.6829268293,-44,29.6341463415,69,-4.2073170732,5,-0.0217391304,-52,-0.2260869565,131,-0.6390243902
8929785,8750,-2896,1.7755977928,1024,0.6278356836,-15744,9.6529736358,-486,2.6829268293,-44,29.6341463415,69,-4.2073170732,9,-0.0391304348,-51,-0.2217391304,129,-0.6292682927
8930425,8769.53125,-3952,2.4230533415,1440,0.8828939301,-15888,9.7412630288,235,3.5975609756,-59,-14.3292682927,31,-1.8902439024,8,-0.0347826087,-53,-0.2304347826,129,-0.6292682927
8931065,8789.0625,-4208,2.5800122624,1376,0.8436541999,-15600,9.5646842428,252,5.4268292683,-89,-15.3658536585,21,-1.2804878049,7,-0.0304347826,-53,-0.2304347826,130,-0.6341463415
8931705,8808.59375,-4512,2.766400981,1328,0.8142244022,-15472,9.4862047823,252,5.4268292683,-89,-15.3658536585,21,-1.2804878049,7,-0.0304347826,-55,-0.2391304348,129,-0.6292682927
8932345,8828.125,-4720,2.8939301042,1344,0.8240343348,-15408,9.4469650521,163,5.3658536585,-88,-9.9390243902,-15,0.9146341463,7,-0.0304347826,-53,-0.2304347826,128,-0.6243902439
8932985,8847.65625,-4848,2.9724095647,1328,0.8142244022,-15296,9.3782955242,-24,6.2804878049,-103,1.4634146341,-21,1.2804878049,8,-0.0347826087,-50,-0.2173913043,126,-0.6146341463
8933625,8867.1875,-4848,2.9724095647,1296,0.7946045371,-15120,9.2703862661,-24,6.2804878049,-103,1.4634146341,-21,1.2804878049,6,-0.0260869565,-50,-0.2173913043,127,-0.6195121951
8934265,8886.71875,-4608,2.8252605763,1360,0.8338442673,-15104,9.2605763335,-154,6.4024390244,-105,9.3902439024,-12,0.7317073171,8,-0.0347826087,-47,-0.2043478261,128,-0.6243902439
8934905,8906.25,-4224,2.589822195,1392,0.8534641324,-14960,9.1722869405,-154,6.4024390244,-105,9.3902439024,-12,0.7317073171,5,-0.0217391304,-54,-0.2347826087,129,-0.6292682927
8935545,8925.78125,-3968,2.4328632741,1440,0.8828939301,-15024,9.2115266708,-50,4.8170731707,-79,3.0487804878,-7,0.4268292683,9,-0.0391304348,-54,-0.2347826087,129,-0.6292682927
8936185,8945.3125,-4160,2.5505824647,1520,0.9319435929,-15056,9.2311465359,109,3.2926829268,-54,-6.6463414634,4,-0.243902439,6,-0.0260869565,-49,-0.2130434783,128,-0.6243902439
8936825,8964.84375,-4528,2.7762109135,1456,0.8927038627,-15120,9.2703862661,109,3.2926829268,-54,-6.6463414634,4,-0.243902439,8,-0.0347826087,-51,-0.2217391304,129,-0.6292682927
8937465,8984.375,-4688,2.8743102391,1504,0.9221336603,-15088,9.250766401,53,3.2926829268,-54,-3.2317073171,-3,0.1829268293,5,-0.0217391304,-44,-0.1913043478,127,-0.6195121951
8938105,9003.90625,-4656,2.854690374,1552,0.951563458,-15136,9.2801961987,53,3.2926829268,-54,-3.2317073171,-3,0.1829268293,5,-0.0217391304,-51,-0.2217391304,127,-0.6195121951
8938745,9023.4375,-4512,2.766400981,1520,0.9319435929,-15136,9.2801961987,-49,3.2926829268,-54,2.987804878,-5,0.3048780488,5,-0.0217391304,-49,-0.2130434783,127,-0.6195121951
8939385,9042.96875,-4304,2.6388718578,1504,0.9221336603,-15088,9.250766401,-54,2.8658536585,-47,3.2926829268,-8,0.487804878,6,-0.0260869565,-49,-0.2130434783,127,-0.6195121951
8940025,9062.5,-4224,2.589822195,1520,0.9319435929,-15232,9.339055794,-54,2.8658536585,-47,3.2926829268,-8,0.487804878,6,-0.0260869565,-48,-0.2086956522,128,-0.6243902439
8940665,9082.03125,-4336,2.6584917229,1440,0.8828939301,-15312,9.3881054568,34,2.5609756098,-42,-2.0731707317,-24,1.4634146341,8,-0.0347826087,-50,-0.2173913043,129,-0.6292682927
8941305,9101.5625,-4544,2.7860208461,1488,0.9123237278,-15280,9.3684855917,50,2.5,-41,-3.0487804878,-23,1.4024390244,7,-0.0304347826,-49,-0.2130434783,127,-0.6195121951
8941945,9121.09375,-4704,2.8841201717,1456,0.8927038627,-15392,9.4371551196,50,2.5,-41,-3.0487804878,-23,1.4024390244,7,-0.0304347826,-47,-0.2043478261,128,-0.6243902439
8942585,9140.625,-4640,2.8448804414,1488,0.9123237278,-15552,9.5352544451,-19,3.1707317073,-52,1.1585365854,-24,1.4634146341,5,-0.0217391304,-52,-0.2260869565,128,-0.6243902439
8943225,9160.15625,-4496,2.7565910484,1472,0.9025137952,-15552,9.5352544451,-19,3.1707317073,-52,1.1585365854,-24,1.4634146341,5,-0.0217391304,-50,-0.2173913043,126,-0.6146341463
8943865,9179.6875,-4560,2.7958307787,1440,0.8828939301,-15456,9.4763948498,-22,3.1097560976,-51,1.3414634146,-10,0.6097560976,8,-0.0347826087,-53,-0.2304347826,128,-0.6243902439
8944505,9199.21875,-4544,2.7860208461,1424,0.8730839975,-15408,9.4469650521,-44,3.9634146341,-65,2.6829268293,-24,1.4634146341,8,-0.0347826087,-53,-0.2304347826,129,-0.6292682927
8945145,9218.75,-4432,2.7173513182,1392,0.8534641324,-15424,9.4567749847,-44,3.9634146341,-65,2.6829268293,-24,1.4634146341,7,-0.0304347826,-53,-0.2304347826,127,-0.6195121951
8945785,9238.28125,-4400,2.6977314531,1392,0.8534641324,-15440,9.4665849172,16,4.2073170732,-69,-0.9756097561,-27,1.6463414634,7,-0.0304347826,-54,-0.2347826087,129,-0.6292682927
8946425,9257.8125,-4496,2.7565910484,1312,0.8044144697,-15392,9.4371551196,16,4.2073170732,-69,-0.9756097561,-27,1.6463414634,7,-0.0304347826,-50,-0.2173913043,127,-0.6195121951
8947065,9277.34375,-4736,2.9037400368,1440,0.8828939301,-15392,9.4371551196,66,4.5731707317,-75,-4.0243902439,-21,1.2804878049,8,-0.0347826087,-54,-0.2347826087,129,-0.6292682927
8947705,9296.875,-4816,2.9527896996,1440,0.8828939301,-15312,9.3881054568,-1,4.6341463415,-76,0.0609756098,-19,1.1585365854,7,-0.0304347826,-49,-0.2130434783,128,-0.6243902439
8948345,9316.40625,-4816,2.9527896996,1520,0.9319435929,-15168,9.2998160638,-1,4.6341463415,-76,0.0609756098,-19,1.1585365854,6,-0.0260869565,-48,-0.2086956522,128,-0.6243902439
8948985,9335.9375,-4624,2.8350705089,1504,0.9221336603,-15120,9.2703862661,-23,5.0609756098,-83,1.4024390244,-10,0.6097560976,5,-0.0217391304,-50,-0.2173913043,129,-0.6292682927
8949625,9355.46875,-4512,2.766400981,1392,0.8534641324,-15232,9.339055794,-23,5.0609756098,-83,1.4024390244,-10,0.6097560976,6,-0.0260869565,-46,-0.2,127,-0.6195121951
8950265,9375,-4560,2.7958307787,1456,0.8927038627,-15264,9.3586756591,34,4.3292682927,-71,-2.0731707317,10,-0.6097560976,7,-0.0304347826,-48,-0.2086956522,128,-0.6243902439
8950905,9394.53125,-4720,2.8939301042,1552,0.951563458,-15296,9.3782955242,82,4.0243902439,-66,-5,25,-1.5243902439,7,-0.0304347826,-51,-0.2217391304,129,-0.6292682927
8951545,9414.0625,-4928,3.0214592275,1568,0.9613733906,-15296,9.3782955242,82,4.0243902439,-66,-5,25,-1.5243902439,8,-0.0347826087,-55,-0.2391304348,130,-0.6341463415
8952185,9433.59375,-4944,3.03126916,1600,0.9809932557,-15312,9.3881054568,24,4.3292682927,-71,-1.4634146341,37,-2.256097561,7,-0.0304347826,-52,-0.2260869565,128,-0.6243902439
8952825,9453.125,-4784,2.9331698345,1584,0.9711833231,-15392,9.4371551196,7,4.512195122,-74,-0.4268292683,28,-1.7073170732,6,-0.0260869565,-49,-0.2130434783,128,-0.6243902439
8953465,9472.65625,-4624,2.8350705089,1648,1.0104230533,-15328,9.3979153893,7,4.512195122,-74,-0.4268292683,28,-1.7073170732,9,-0.0391304348,-54,-0.2347826087,129,-0.6292682927
8954105,9492.1875,-4576,2.8056407112,1552,0.951563458,-15456,9.4763948498,44,4.4512195122,-73,-2.6829268293,49,-2.987804878,8,-0.0347826087,-54,-0.2347826087,127,-0.6195121951
8954745,9511.71875,-4576,2.8056407112,1552,0.951563458,-15392,9.4371551196,44,4.4512195122,-73,-2.6829268293,49,-2.987804878,9,-0.0391304348,-52,-0.2260869565,127,-0.6195121951
8955385,9531.25,-4624,2.8350705089,1712,1.0496627836,-15312,9.3881054568,96,4.6341463415,-76,-5.8536585366,40,-2.4390243902,8,-0.0347826087,-53,-0.2304347826,128,-0.6243902439
8956025,9550.78125,-4464,2.7369711833,1920,1.1771919068,-15216,9.3292458614,85,5.3048780488,-87,-5.1829268293,7,-0.4268292683,8,-0.0347826087,-54,-0.2347826087,128,-0.6243902439
8956665,9570.3125,-4288,2.6290619252,2032,1.2458614347,-15008,9.2017167382,85,5.3048780488,-87,-5.1829268293,7,-0.4268292683,7,-0.0304347826,-53,-0.2304347826,126,-0.6146341463
8957305,9589.84375,-3936,2.413243409,2080,1.2752912324,-14864,9.1134273452,130,4.5731707317,-75,-7.9268292683,-18,1.0975609756,8,-0.0347826087,-53,-0.2304347826,128,-0.6243902439
8957945,9609.375,-3840,2.3543838136,2272,1.3930104231,-14672,8.9957081545,130,4.5731707317,-75,-7.9268292683,-18,1.0975609756,7,-0.0304347826,-54,-0.2347826087,126,-0.6146341463
8958585,9628.90625,-3632,2.2268546904,2384,1.461679951,-14320,8.7798896383,128,2.5,-41,-7.8048780488,-30,1.8292682927,7,-0.0304347826,-54,-0.2347826087,127,-0.6195121951
8959225,9648.4375,-3408,2.0895156346,2448,1.5009196812,-13776,8.4463519313,31,-0.7317073171,12,-1.8902439024,-46,2.8048780488,8,-0.0347826087,-55,-0.2391304348,128,-0.6243902439
8959865,9667.96875,-3072,1.8835070509,2304,1.4126302882,-13376,8.2011036174,31,-0.7317073171,12,-1.8902439024,-46,2.8048780488,10,-0.0434782609,-55,-0.2391304348,127,-0.6195121951
8960505,9687.5,-2576,1.5793991416,2144,1.3145309626,-12896,7.9068056407,32,-5.3048780488,87,-1.9512195122,-94,5.7317073171,10,-0.0434782609,-55,-0.2391304348,127,-0.6195121951
8961145,9707.03125,-2320,1.4224402207,2240,1.3733905579,-12416,7.612507664,121,-11.5853658537,190,-7.3780487805,-206,12.5609756098,9,-0.0391304348,-54,-0.2347826087,127,-0.6195121951
8961785,9726.5625,-2224,1.3635806254,2080,1.2752912324,-11856,7.2691600245,121,-11.5853658537,190,-7.3780487805,-206,12.5609756098,9,-0.0391304348,-49,-0.2130434783,126,-0.6146341463
8962425,9746.09375,-2368,1.4518700184,1984,1.216431637,-11536,7.0729613734,229,-20.7317073171,340,-13.9634146341,-353,21.5243902439,10,-0.0434782609,-53,-0.2304347826,126,-0.6146341463
8963065,9765.625,-2544,1.5597792765,1792,1.0987124464,-11584,7.1023911711,229,-20.7317073171,340,-13.9634146341,-353,21.5243902439,7,-0.0304347826,-45,-0.1956521739,124,-0.6048780488
8963705,9785.15625,-2736,1.6774984672,1552,0.951563458,-11920,7.3083997548,280,-29.6341463415,486,-17.0731707317,-467,28.4756097561,10,-0.0434782609,-43,-0.1869565217,124,-0.6048780488
8964345,9804.6875,-3072,1.8835070509,1104,0.6768853464,-12080,7.4064990803,253,-37.256097561,611,-15.4268292683,-527,32.1341463415,9,-0.0391304348,-43,-0.1869565217,125,-0.6097560976
8964985,9824.21875,-3408,2.0895156346,624,0.3825873697,-12816,7.8577559779,253,-37.256097561,611,-15.4268292683,-527,32.1341463415,12,-0.052173913,-47,-0.2043478261,125,-0.6097560976
8965625,9843.75,-3312,2.0306560392,64,0.0392397302,-13600,8.3384426732,216,-42.1951219512,692,-13.1707317073,-556,33.9024390244,10,-0.0434782609,-44,-0.1913043478,125,-0.6097560976
8966265,9863.28125,-3536,2.167995095,-416,-0.2550582465,-13632,8.3580625383,216,-42.1951219512,692,-13.1707317073,-556,33.9024390244,9,-0.0391304348,-38,-0.1652173913,124,-0.6048780488
8966905,9882.8125,-3968,2.4328632741,-528,-0.3237277744,-13616,8.3482526058,224,-43.7804878049,718,-13.6585365854,-609,37.1341463415,10,-0.0434782609,-36,-0.1565217391,124,-0.6048780488
8967545,9902.34375,-3776,2.3151440834,-800,-0.4904966278,-13968,8.564071122,124,-46.0975609756,756,-7.5609756098,-706,43.0487804878,12,-0.052173913,-38,-0.1652173913,124,-0.6048780488
8968185,9921.875,-3264,2.0012262416,-1264,-0.774984672,-13856,8.4954015941,124,-46.0975609756,756,-7.5609756098,-706,43.0487804878,12,-0.052173913,-35,-0.152173913,123,-0.6
8968825,9941.40625,-3520,2.1581851625,-1696,-1.039852851,-14064,8.6229307174,276,-49.2682926829,808,-16.8292682927,-798,48.6585365854,9,-0.0391304348,-28,-0.1217391304,121,-0.5902439024
8969465,9960.9375,-3872,2.3740036787,-2192,-1.3439607603,-14560,8.9270386266,229,-49.512195122,812,-13.9634146341,-886,54.0243902439,9,-0.0391304348,-25,-0.1086956522,120,-0.5853658537
8970105,9980.46875,-3520,2.1581851625,-2784,-1.7069282649,-14640,8.9760882894,229,-49.512195122,812,-13.9634146341,-886,54.0243902439,10,-0.0434782609,-22,-0.0956521739,120,-0.5853658537
8970745,10000,-3104,1.903126916,-3456,-2.1189454323,-14640,8.9760882894,237,-49.9390243902,819,-14.4512195122,-951,57.987804878,10,-0.0434782609,-19,-0.0826086957,118,-0.5756097561
8971385,10019.53125,-3200,1.9619865113,-4128,-2.5309625996,-15088,9.250766401,237,-49.9390243902,819,-14.4512195122,-951,57.987804878,8,-0.0347826087,-17,-0.0739130435,119,-0.5804878049
8972025,10039.0625,-3664,2.2464745555,-4512,-2.766400981,-15456,9.4763948498,399,-48.7804878049,800,-24.3292682927,-1016,61.9512195122,10,-0.0434782609,-16,-0.0695652174,118,-0.5756097561
8972665,10058.59375,-3408,2.0895156346,-4896,-3.0018393624,-15344,9.4077253219,270,-44.2682926829,726,-16.4634146341,-1163,70.9146341463,8,-0.0347826087,-15,-0.0652173913,118,-0.5756097561
8973305,10078.125,-2912,1.7854077253,-5568,-3.4138565297,-15056,9.2311465359,270,-44.2682926829,726,-16.4634146341,-1163,70.9146341463,5,-0.0217391304,-13,-0.0565217391,117,-0.5707317073
8973945,10097.65625,-2896,1.7755977928,-6336,-3.8847332925,-15088,9.250766401,541,-43.3536585366,711,-32.987804878,-1219,74.3292682927,10,-0.0434782609,-9,-0.0391304348,115,-0.5609756098
8974585,10117.1875,-3520,2.1581851625,-6816,-4.1790312692,-15232,9.339055794,541,-43.3536585366,711,-32.987804878,-1219,74.3292682927,8,-0.0347826087,-5,-0.0217391304,112,-0.5463414634
8975225,10136.71875,-3904,2.3936235438,-7120,-4.3654199877,-15008,9.2017167382,650,-36.9512195122,606,-39.6341463415,-1373,83.7195121951,5,-0.0217391304,-3,-0.0130434783,111,-0.5414634146
8975865,10156.25,-3712,2.2759043532,-7808,-4.7872470877,-14784,9.0643776824,563,-33.0487804878,542,-34.3292682927,-1494,91.0975609756,3,-0.0130434783,2,0.0086956522,108,-0.5268292683
8976505,10175.78125,-3248,1.991416309,-8480,-5.1992642551,-14752,9.0447578173,563,-33.0487804878,542,-34.3292682927,-1494,91.0975609756,1,-0.0043478261,8,0.0347826087,107,-0.5219512195
8977145,10195.3125,-3296,2.0208461067,-9008,-5.5229920294,-14560,8.9270386266,837,-28.4146341463,466,-51.0365853659,-1579,96.2804878049,2,-0.0086956522,7,0.0304347826,105,-0.512195122
8977785,10214.84375,-4240,2.5996321275,-9136,-5.6014714899,-14640,8.9760882894,837,-28.4146341463,466,-51.0365853659,-1579,96.2804878049,2,-0.0086956522,9,0.0391304348,103,-0.5024390244
8978425,10234.375,-4992,3.0606989577,-9424,-5.7780502759,-14592,8.9466584917,953,-23.0487804878,378,-58.1097560976,-1659,101.1585365854,-1,0.0043478261,17,0.0739130435,100,-0.487804878
8979065,10253.90625,-4880,2.9920294298,-9840,-6.0331085224,-14560,8.9270386266,699,-15.7926829268,259,-42.6219512195,-1739,106.0365853659,0,0,13,0.0565217391,100,-0.487804878
8979705,10273.4375,-4784,2.9331698345,-10208,-6.2587369712,-15088,9.250766401,699,-15.7926829268,259,-42.6219512195,-1739,106.0365853659,-5,0.0217391304,18,0.0782608696,98,-0.4780487805
8980345,10292.96875,-5296,3.2470876763,-10528,-6.4549356223,-15760,9.6627835684,814,-7.3170731707,120,-49.6341463415,-1784,108.7804878049,-6,0.0260869565,25,0.1086956522,97,-0.4731707317
8980985,10312.5,-6096,3.7375843041,-10800,-6.6217044758,-16352,10.025751073,761,3.2317073171,-53,-46.4024390244,-1782,108.6585365854,-8,0.0347826087,27,0.1173913043,94,-0.4585365854
8981625,10332.03125,-6288,3.8553034948,-11264,-6.9061925199,-16976,10.4083384427,761,3.2317073171,-53,-46.4024390244,-1782,108.6585365854,-8,0.0347826087,24,0.1043478261,94,-0.4585365854
8982265,10351.5625,-6160,3.7768240343,-11680,-7.1612507664,-17248,10.5751072961,765,18.4756097561,-303,-46.6463414634,-1739,106.0365853659,-12,0.052173913,28,0.1217391304,93,-0.4536585366
8982905,10371.09375,-6288,3.8553034948,-12112,-7.4261189454,-17408,10.6732066217,765,18.4756097561,-303,-46.6463414634,-1739,106.0365853659,-13,0.0565217391,31,0.1347826087,90,-0.4390243902
8983545,10390.625,-6416,3.9337829552,-12848,-7.877375843,-17584,10.7811158798,958,36.6463414634,-601,-58.4146341463,-1769,107.8658536585,-16,0.0695652174,37,0.1608695652,90,-0.4390243902
8984185,10410.15625,-6688,4.1005518087,-13424,-8.2305334151,-17168,10.5260576334,922,54.8780487805,-900,-56.2195121951,-1849,112.743902439,-17,0.0739130435,38,0.1652173913,89,-0.4341463415
8984825,10429.6875,-7344,4.5027590435,-13680,-8.387492336,-16896,10.3592887799,922,54.8780487805,-900,-56.2195121951,-1849,112.743902439,-19,0.0826086957,38,0.1652173913,90,-0.4390243902
8985465,10449.21875,-7936,4.8657265481,-13696,-8.3973022685,-16752,10.2709993869,840,71.8292682927,-1178,-51.2195121951,-1852,112.9268292683,-23,0.1,39,0.1695652174,90,-0.4390243902
8986105,10468.75,-8048,4.934396076,-13568,-8.3188228081,-16688,10.2317596567,840,71.8292682927,-1178,-51.2195121951,-1852,112.9268292683,-23,0.1,40,0.1739130435,93,-0.4536585366
8986745,10488.28125,-8048,4.934396076,-13488,-8.2697731453,-16592,10.1729000613,641,87.5609756098,-1436,-39.0853658537,-1830,111.5853658537,-30,0.1304347826,42,0.1826086957,93,-0.4536585366
8987385,10507.8125,-8768,5.3758430411,-12944,-7.9362354384,-16288,9.9865113427,481,97.4390243902,-1598,-29.3292682927,-1625,99.0853658537,-29,0.1260869565,44,0.1913043478,94,-0.4585365854
8988025,10527.34375,-9568,5.8663396689,-12496,-7.6615573268,-16448,10.0846106683,481,97.4390243902,-1598,-29.3292682927,-1625,99.0853658537,-32,0.1391304348,44,0.1913043478,97,-0.4731707317
8988665,10546.875,-9744,5.974248927,-12256,-7.5144083384,-16528,10.1336603311,136,107.8658536585,-1769,-8.2926829268,-1340,81.7073170732,-37,0.1608695652,43,0.1869565217,99,-0.4829268293
8989305,10566.40625,-9088,5.5720416922,-12144,-7.4457388105,-16256,9.9668914776,-80,116.0975609756,-1904,4.8780487805,-1045,63.7195121951,-37,0.1608695652,43,0.1869565217,102,-0.4975609756
8989945,10585.9375,-8800,5.3954629062,-11344,-6.9552421827,-16080,9.8589822195,-80,116.0975609756,-1904,4.8780487805,-1045,63.7195121951,-36,0.1565217391,42,0.1826086957,103,-0.5024390244
8990585,10605.46875,-8912,5.4641324341,-10752,-6.5922746781,-16288,9.9865113427,-50,116.6463414634,-1913,3.0487804878,-667,40.6707317073,-41,0.1782608696,47,0.2043478261,106,-0.5170731707
8991225,10625,-9152,5.6112814224,-10176,-6.2391171061,-16736,10.2611894543,-50,116.6463414634,-1913,3.0487804878,-667,40.6707317073,-40,0.1739130435,43,0.1869565217,108,-0.5268292683
8991865,10644.53125,-9408,5.7682403433,-9680,-5.9350091968,-16640,10.202329859,-171,122.1951219512,-2004,10.4268292683,-326,19.8780487805,-41,0.1782608696,40,0.1739130435,112,-0.5463414634
8992505,10664.0625,-9376,5.7486204782,-9008,-5.5229920294,-16256,9.9668914776,-418,126.7073170732,-2078,25.487804878,30,-1.8292682927,-38,0.1652173913,37,0.1608695652,115,-0.5609756098
8993145,10683.59375,-8832,5.4150827713,-8688,-5.3267933783,-16352,10.025751073,-418,126.7073170732,-2078,25.487804878,30,-1.8292682927,-38,0.1652173913,33,0.1434782609,119,-0.5804878049
8993785,10703.125,-7888,4.8362967505,-8336,-5.110974862,-15984,9.8001226242,-543,131.3414634146,-2154,33.1097560976,273,-16.6463414634,-40,0.1739130435,38,0.1652173913,122,-0.5951219512
8994425,10722.65625,-7360,4.5125689761,-7904,-4.846106683,-15168,9.2998160638,-543,131.3414634146,-2154,33.1097560976,273,-16.6463414634,-40,0.1739130435,36,0.1565217391,127,-0.6195121951
8995065,10742.1875,-7056,4.3261802575,-7312,-4.4831391784,-14656,8.9858982219,-447,132.743902439,-2177,27.256097561,497,-30.3048780488,-38,0.1652173913,28,0.1217391304,129,-0.6292682927
8995705,10761.71875,-6864,4.2084610668,-6640,-4.071122011,-13952,8.5542611895,-611,132.8048780488,-2178,37.256097561,600,-36.5853658537,-36,0.1565217391,23,0.1,134,-0.6536585366
8996345,10781.25,-6288,3.8553034948,-5840,-3.5806253832,-13296,8.1520539546,-611,132.8048780488,-2178,37.256097561,600,-36.5853658537,-37,0.1608695652,24,0.1043478261,136,-0.6634146341
8996985,10800.78125,-5744,3.5217657879,-4944,-3.03126916,-12592,7.7204169221,-851,130.6097560976,-2142,51.8902439024,643,-39.2073170732,-38,0.1652173913,19,0.0826086957,141,-0.687804878
8997625,10820.3125,-5264,3.2274678112,-4048,-2.4819129368,-11648,7.1416309013,-935,126.5243902439,-2075,57.012195122,698,-42.5609756098,-37,0.1608695652,13,0.0565217391,143,-0.6975609756
8998265,10839.84375,-4624,2.8350705089,-3360,-2.0600858369,-10784,6.6118945432,-935,126.5243902439,-2075,57.012195122,698,-42.5609756098,-39,0.1695652174,10,0.0434782609,146,-0.712195122
8998905,10859.375,-4064,2.4917228694,-2528,-1.549969344,-10208,6.2587369712,-1026,118.7804878049,-1948,62.5609756098,727,-44.3292682927,-39,0.1695652174,6,0.0260869565,148,-0.7219512195
8999545,10878.90625,-3392,2.079705702,-1472,-0.9025137952,-9728,5.9644389945,-1026,118.7804878049,-1948,62.5609756098,727,-44.3292682927,-40,0.1739130435,4,0.0173913043,152,-0.7414634146
9000185,10898.4375,-3152,1.9325567137,-624,-0.3825873697,-9376,5.7486204782,-904,113.1707317073,-1856,55.1219512195,785,-47.8658536585,-38,0.1652173913,-2,-0.0086956522,156,-0.7609756098
9000825,10917.96875,-2704,1.6578786021,224,0.1373390558,-8928,5.4739423666,-705,102.743902439,-1685,42.987804878,854,-52.0731707317,-41,0.1782608696,-7,-0.0304347826,158,-0.7707317073
9001465,10937.5,-2224,1.3635806254,1264,0.774984672,-8720,5.3464132434,-705,102.743902439,-1685,42.987804878,854,-52.0731707317,-40,0.1739130435,-7,-0.0304347826,158,-0.7707317073
9002105,10957.03125,-1936,1.1870018394,2224,1.3635806254,-8912,5.4641324341,-476,89.0853658537,-1461,29.0243902439,996,-60.7317073171,-42,0.1826086957,-11,-0.047826087,160,-0.7804878049
9002745,10976.5625,-1696,1.039852851,3104,1.903126916,-9040,5.5426118945,-476,89.0853658537,-1461,29.0243902439,996,-60.7317073171,-42,0.1826086957,-16,-0.0695652174,162,-0.7902439024
9003385,10996.09375,-1648,1.0104230533,3408,2.0895156346,-8928,5.4739423666,-127,75.7317073171,-1242,7.743902439,1163,-70.9146341463,-43,0.1869565217,-21,-0.0913043478,163,-0.7951219512
9004025,11015.625,-1600,0.9809932557,3856,2.3641937462,-8704,5.3366033109,-267,61.4024390244,-1007,16.2804878049,1332,-81.2195121951,-42,0.1826086957,-21,-0.0913043478,162,-0.7902439024
9004665,11035.15625,-1680,1.0300429185,4144,2.5407725322,-8992,5.5131820969,-267,61.4024390244,-1007,16.2804878049,1332,-81.2195121951,-43,0.1869565217,-20,-0.0869565217,163,-0.7951219512
9005305,11054.6875,-1600,0.9809932557,4416,2.7075413857,-8736,5.356223176,-437,52.012195122,-853,26.6463414634,1472,-89.756097561,-45,0.1956521739,-27,-0.1173913043,165,-0.8048780488
9005945,11074.21875,-832,0.5101164929,4320,2.6486817903,-8400,5.1502145923,-437,52.012195122,-853,26.6463414634,1472,-89.756097561,-45,0.1956521739,-32,-0.1391304348,166,-0.8097560976
9006585,11093.75,208,-0.1275291232,4144,2.5407725322,-8272,5.0717351318,-807,43.4756097561,-713,49.2073170732,1561,-95.1829268293,-46,0.2,-30,-0.1304347826,165,-0.8048780488
9007225,11113.28125,1072,-0.6572654813,4320,2.6486817903,-8336,5.110974862,-860,32.3780487805,-531,52.4390243902,1721,-104.9390243902,-48,0.2086956522,-38,-0.1652173913,167,-0.8146341463
9007865,11132.8125,1696,-1.039852851,4912,3.0116492949,-8176,5.0128755365,-860,32.3780487805,-531,52.4390243902,1721,-104.9390243902,-50,0.2173913043,-33,-0.1434782609,166,-0.8097560976
9008505,11152.34375,2592,-1.5892090742,4896,3.0018393624,-7952,4.8755364807,-816,18.4756097561,-303,49.756097561,1921,-117.1341463415,-52,0.2260869565,-36,-0.1565217391,170,-0.8292682927
9009145,11171.875,3488,-2.1385652974,4064,2.4917228694,-7808,4.7872470877,-815,6.5853658537,-108,49.6951219512,2157,-131.5243902439,-56,0.2434782609,-41,-0.1782608696,169,-0.8243902439
9009785,11191.40625,4144,-2.5407725322,3824,2.3445738811,-7392,4.5321888412,-815,6.5853658537,-108,49.6951219512,2157,-131.5243902439,-56,0.2434782609,-44,-0.1913043478,171,-0.8341463415
9010425,11210.9375,5216,-3.1980380135,4256,2.6094420601,-7216,4.4242795831,-748,-8.3536585366,137,45.6097560976,2200,-134.1463414634,-59,0.2565217391,-41,-0.1782608696,171,-0.8341463415
9011065,11230.46875,6448,-3.9534028204,3664,2.2464745555,-7808,4.7872470877,-748,-8.3536585366,137,45.6097560976,2200,-134.1463414634,-64,0.2782608696,-40,-0.1739130435,171,-0.8341463415
9011705,11250,6560,-4.0220723483,2384,1.461679951,-8032,4.9245861435,-464,-24.8170731707,407,28.2926829268,2356,-143.6585365854,-65,0.2826086957,-37,-0.1608695652,170,-0.8292682927
9012345,11269.53125,6608,-4.0515021459,2080,1.2752912324,-7696,4.7185775598,-318,-32.3780487805,531,19.3902439024,2308,-140.7317073171,-64,0.2782608696,-45,-0.1956521739,173,-0.843902439
9012985,11289.0625,7568,-4.6400980993,2032,1.2458614347,-7840,4.8068669528,-318,-32.3780487805,531,19.3902439024,2308,-140.7317073171,-67,0.2913043478,-42,-0.1826086957,171,-0.8341463415
9013625,11308.59375,8208,-5.0324954016,848,0.5199264255,-8720,5.3464132434,-439,-47.3170731707,776,26.7682926829,2413,-147.1341463415,-68,0.2956521739,-37,-0.1608695652,172,-0.8390243902
9014265,11328.125,7616,-4.669527897,-256,-0.1569589209,-8704,5.3366033109,-439,-47.3170731707,776,26.7682926829,2413,-147.1341463415,-68,0.2956521739,-42,-0.1826086957,172,-0.8390243902
9014905,11347.65625,7776,-4.7676272226,-880,-0.5395462906,-8944,5.4837522992,-325,-51.4634146341,844,19.8170731707,2505,-152.743902439,-72,0.3130434783,-35,-0.152173913,171,-0.8341463415
9015545,11367.1875,9648,-5.9153893317,-1440,-0.8828939301,-9712,5.9546290619,-787,-60.5487804878,993,47.987804878,2365,-144.2073170732,-72,0.3130434783,-34,-0.147826087,171,-0.8341463415
9016185,11386.71875,10400,-6.3764561619,-2944,-1.8050275904,-10256,6.2881667689,-787,-60.5487804878,993,47.987804878,2365,-144.2073170732,-76,0.3304347826,-31,-0.1347826087,174,-0.8487804878
9016825,11406.25,9456,-5.797670141,-4336,-2.6584917229,-9728,5.9644389945,-370,-63.3536585366,1039,22.5609756098,2677,-163.2317073171,-76,0.3304347826,-32,-0.1391304348,172,-0.8390243902
9017465,11425.78125,9184,-5.6309012876,-5408,-3.3157572042,-10736,6.5824647456,-550,-68.9634146341,1131,33.5365853659,2537,-154.6951219512,-78,0.3391304348,-28,-0.1217391304,172,-0.8390243902
9018105,11445.3125,10224,-6.2685469037,-5664,-3.4727161251,-13024,7.9852851012,-550,-68.9634146341,1131,33.5365853659,2537,-154.6951219512,-77,0.3347826087,-26,-0.1130434783,172,-0.8390243902
9018745,11464.84375,10704,-6.5628448804,-5744,-3.5217657879,-13632,8.3580625383,-935,-62.743902439,1029,57.012195122,2419,-147.5,-82,0.3565217391,-23,-0.1,170,-0.8292682927
9019385,11484.375,11456,-7.0239117106,-6656,-4.0809319436,-13696,8.3973022685,-935,-62.743902439,1029,57.012195122,2419,-147.5,-85,0.3695652174,-24,-0.1043478261,172,-0.8390243902
9020025,11503.90625,11584,-7.1023911711,-8256,-5.0619251993,-14288,8.7602697731,-521,-60.0609756098,985,31.7682926829,2538,-154.756097561,-81,0.352173913,-20,-0.0869565217,170,-0.8292682927
9020665,11523.4375,11504,-7.0533415083,-9632,-5.9055793991,-15152,9.2900061312,-728,-48.3536585366,793,44.3902439024,2473,-150.7926829268,-82,0.3565217391,-18,-0.0782608696,170,-0.8292682927
9021305,11542.96875,11712,-7.1808706315,-10608,-6.5039852851,-15552,9.5352544451,-728,-48.3536585366,793,44.3902439024,2473,-150.7926829268,-86,0.3739130435,-16,-0.0695652174,168,-0.8195121951
9021945,11562.5,12416,-7.612507664,-11312,-6.9356223176,-15872,9.7314530963,-789,-35.7317073171,586,48.1097560976,2395,-146.0365853659,-86,0.3739130435,-11,-0.047826087,168,-0.8195121951
9022585,11582.03125,13136,-8.0539546291,-11376,-6.9748620478,-16640,10.202329859,-789,-35.7317073171,586,48.1097560976,2395,-146.0365853659,-88,0.3826086957,-8,-0.0347826087,167,-0.8146341463
9023225,11601.5625,12736,-7.8087063151,-10816,-6.6315144083,-16752,10.2709993869,-473,-18.1097560976,297,28.8414634146,2402,-146.4634146341,-87,0.3782608696,-12,-0.052173913,167,-0.8146341463
9023865,11621.09375,12064,-7.3966891478,-10816,-6.6315144083,-16576,10.1630901288,-437,-6.3414634146,104,26.6463414634,2206,-134.512195122,-86,0.3739130435,-8,-0.0347826087,168,-0.8195121951
9024505,11640.625,12288,-7.5340282036,-11184,-6.8571428571,-17008,10.4279583078,-437,-6.3414634146,104,26.6463414634,2206,-134.512195122,-86,0.3739130435,-7,-0.0304347826,168,-0.8195121951
9025145,11660.15625,13072,-8.0147148988,-11728,-7.1906805641,-17712,10.8595953403,-308,8.1707317073,-134,18.7804878049,2027,-123.5975609756,-84,0.3652173913,-12,-0.052173913,168,-0.8195121951
9025785,11679.6875,13008,-7.9754751686,-12288,-7.5340282036,-18128,11.1146535868,31,24.3292682927,-399,-1.8902439024,2008,-122.4390243902,-84,0.3652173913,-12,-0.052173913,169,-0.8243902439
9026425,11699.21875,12624,-7.7400367872,-12240,-7.5045984059,-18720,11.4776210914,31,24.3292682927,-399,-1.8902439024,2008,-122.4390243902,-84,0.3652173913,-8,-0.0347826087,167,-0.8146341463
9027065,11718.75,12608,-7.7302268547,-12320,-7.5536480687,-19008,11.6541998774,0,41.3414634146,-678,0,1872,-114.1463414634,-82,0.3565217391,-10,-0.0434782609,168,-0.8195121951
9027705,11738.28125,13328,-8.1716738197,-12672,-7.7694665849,-19184,11.7621091355,0,41.3414634146,-678,0,1872,-114.1463414634,-82,0.3565217391,-15,-0.0652173913,169,-0.8243902439
9028345,11757.8125,13712,-8.4071122011,-13008,-7.9754751686,-19376,11.8798283262,395,56.8292682927,-932,-24.0853658537,1779,-108.4756097561,-79,0.3434782609,-15,-0.0652173913,168,-0.8195121951
9028985,11777.34375,13152,-8.0637645616,-13104,-8.0343347639,-19552,11.9877375843,777,73.1097560976,-1199,-47.3780487805,1689,-102.987804878,-79,0.3434782609,-15,-0.0652173913,170,-0.8292682927
9029625,11796.875,12080,-7.4064990803,-12624,-7.7400367872,-19600,12.017167382,777,73.1097560976,-1199,-47.3780487805,1689,-102.987804878,-74,0.3217391304,-17,-0.0739130435,169,-0.8243902439
9030265,11816.40625,11856,-7.2691600245,-12320,-7.5536480687,-19456,11.928877989,620,90.5487804878,-1485,-37.8048780488,1462,-89.1463414634,-73,0.3173913043,-23,-0.1,169,-0.8243902439
9030905,11835.9375,12032,-7.3770692826,-12384,-7.5928877989,-19072,11.6934396076,620,90.5487804878,-1485,-37.8048780488,1462,-89.1463414634,-70,0.3043478261,-30,-0.1304347826,172,-0.8390243902
9031545,11855.46875,11968,-7.3378295524,-12304,-7.5438381361,-18864,11.5659104844,688,104.3902439024,-1712,-41.9512195122,1162,-70.8536585366,-69,0.3,-28,-0.1217391304,171,-0.8341463415
9032185,11875,11952,-7.3280196199,-11552,-7.0827713059,-19744,12.105456775,917,114.4512195122,-1877,-55.9146341463,975,-59.4512195122,-66,0.2869565217,-34,-0.147826087,172,-0.8390243902
9032825,11894.53125,12624,-7.7400367872,-11216,-6.8767627223,-21520,13.1943592888,917,114.4512195122,-1877,-55.9146341463,975,-59.4512195122,-66,0.2869565217,-38,-0.1652173913,172,-0.8390243902
9033465,11914.0625,12688,-7.7792765175,-12128,-7.435928878,-21232,13.0177805028,1445,135.4268292683,-2221,-88.1097560976,973,-59.3292682927,-61,0.2652173913,-47,-0.2043478261,172,-0.8390243902
9034105,11933.59375,11056,-6.7786633967,-12640,-7.7498467198,-19680,12.0662170448,1445,135.4268292683,-2221,-88.1097560976,973,-59.3292682927,-58,0.252173913,-48,-0.2086956522,171,-0.8341463415
9034745,11953.125,8976,-5.5033721643,-11824,-7.2495401594,-18448,11.3108522379,1590,151.9512195122,-2492,-96.9512195122,801,-48.8414634146,-54,0.2347826087,-56,-0.2434782609,168,-0.8195121951
9035385,11972.65625,7552,-4.6302881668,-10640,-6.5236051502,-17376,10.6535867566,856,163.5975609756,-2683,-52.1951219512,416,-25.3658536585,-53,0.2304347826,-62,-0.2695652174,169,-0.8243902439
9036025,11992.1875,6944,-4.2575107296,-9888,-6.06253832,-16384,10.0453709381,856,163.5975609756,-2683,-52.1951219512,416,-25.3658536585,-52,0.2260869565,-70,-0.3043478261,168,-0.8195121951
9036665,12011.71875,7056,-4.3261802575,-9200,-5.6407112201,-15616,9.5744941754,186,167.1951219512,-2742,-11.3414634146,28,-1.7073170732,-50,0.2173913043,-74,-0.3217391304,164,-0.8
9037305,12031.25,7104,-4.3556100552,-8352,-5.1207847946,-14480,8.8779889638,-4,165.8536585366,-2720,0.243902439,-212,12.9268292683,-49,0.2130434783,-83,-0.3608695652,162,-0.7902439024
9037945,12050.78125,6880,-4.2182709994,-7392,-4.5321888412,-13696,8.3973022685,-4,165.8536585366,-2720,0.243902439,-212,12.9268292683,-51,0.2217391304,-85,-0.3695652174,159,-0.7756097561
9038585,12070.3125,6688,-4.1005518087,-6064,-3.717964439,-13488,8.2697731453,11,160.8536585366,-2638,-0.6707317073,-399,24.3292682927,-50,0.2173913043,-95,-0.4130434783,157,-0.7658536585
9039225,12089.84375,6752,-4.1397915389,-4800,-2.942979767,-13216,8.1030042918,11,160.8536585366,-2638,-0.6707317073,-399,24.3292682927,-48,0.2086956522,-99,-0.4304347826,156,-0.7609756098
9039865,12109.375,6704,-4.1103617413,-3600,-2.2072348253,-12032,7.3770692826,138,157.8658536585,-2589,-8.4146341463,-455,27.743902439,-46,0.2,-103,-0.447826087,149,-0.7268292683
9040505,12128.90625,6128,-3.7572041692,-2560,-1.5695892091,-10576,6.48436542,144,147.6829268293,-2422,-8.7804878049,-604,36.8292682927,-47,0.2043478261,-101,-0.4391304348,148,-0.7219512195
9041145,12148.4375,5376,-3.2961373391,-1264,-0.774984672,-9584,5.8761496015,144,147.6829268293,-2422,-8.7804878049,-604,36.8292682927,-44,0.1913043478,-105,-0.4565217391,144,-0.7024390244
9041785,12167.96875,5152,-3.1587982833,64,0.0392397302,-8704,5.3366033109,-177,136.5853658537,-2240,10.7926829268,-903,55.0609756098,-43,0.1869565217,-112,-0.4869565217,142,-0.6926829268
9042425,12187.5,5008,-3.0705088903,1408,0.863274065,-8304,5.0913549969,-177,136.5853658537,-2240,10.7926829268,-903,55.0609756098,-40,0.1739130435,-114,-0.4956521739,135,-0.6585365854
9043065,12207.03125,4880,-2.9920294298,2480,1.5205395463,-8096,4.9638258737,-288,120.3048780488,-1973,17.5609756098,-1224,74.6341463415,-40,0.1739130435,-116,-0.5043478261,135,-0.6585365854
9043705,12226.5625,4560,-2.7958307787,3424,2.0993255671,-7520,4.6106683017,-143,106.3414634146,-1744,8.7195121951,-1426,86.9512195122,-38,0.1652173913,-118,-0.5130434783,131,-0.6390243902
9044345,12246.09375,4032,-2.4721030043,4112,2.5211526671,-6960,4.2673206622,-143,106.3414634146,-1744,8.7195121951,-1426,86.9512195122,-35,0.152173913,-119,-0.5173913043,129,-0.6292682927
9044985,12265.625,3504,-2.1483752299,4736,2.9037400368,-6720,4.1201716738,-93,89.2073170732,-1463,5.6707317073,-1627,99.2073170732,-30,0.1304347826,-122,-0.5304347826,127,-0.6195121951
9045625,12285.15625,2960,-1.814837523,5168,3.1686082158,-6464,3.9632127529,-64,72.3780487805,-1187,3.9024390244,-1778,108.4146341463,-30,0.1304347826,-119,-0.5173913043,124,-0.6048780488
9046265,12304.6875,2480,-1.5205395463,5472,3.3549969344,-6304,3.8651134273,-64,72.3780487805,-1187,3.9024390244,-1778,108.4146341463,-25,0.1086956522,-117,-0.5086956522,121,-0.5902439024
9046905,12324.21875,1888,-1.1575720417,5920,3.629675046,-5888,3.6100551809,55,55.4268292683,-909,-3.3536585366,-1866,113.7804878049,-20,0.0869565217,-120,-0.5217391304,121,-0.5902439024
9047545,12343.75,1168,-0.7161250766,6384,3.9141630901,-5760,3.5315757204,55,55.4268292683,-909,-3.3536585366,-1866,113.7804878049,-19,0.0826086957,-117,-0.5086956522,116,-0.5658536585
9048185,12363.28125,528,-0.3237277744,6896,4.2280809319,-6000,3.6787247088,139,38.0487804878,-624,-8.4756097561,-1994,121.5853658537,-14,0.0608695652,-113,-0.4913043478,116,-0.5658536585
9048825,12382.8125,240,-0.1471489884,7232,4.4340895156,-6160,3.7768240343,161,21.5853658537,-354,-9.8170731707,-2133,130.0609756098,-11,0.047826087,-116,-0.5043478261,117,-0.5707317073
9049465,12402.34375,-96,0.0588595953,7024,4.3065603924,-6400,3.9239730227,161,21.5853658537,-354,-9.8170731707,-2133,130.0609756098,-7,0.0304347826,-106,-0.4608695652,113,-0.5512195122
9050105,12421.875,-592,0.3629675046,6784,4.159411404,-6336,3.8847332925,312,6.6463414634,-109,-19.0243902439,-2158,131.5853658537,-5,0.0217391304,-106,-0.4608695652,113,-0.5512195122
9050745,12441.40625,-960,0.5885959534,6368,3.9043531576,-6320,3.8749233599,312,6.6463414634,-109,-19.0243902439,-2158,131.5853658537,1,-0.0043478261,-102,-0.4434782609,113,-0.5512195122
9051385,12460.9375,-1664,1.0202329859,5760,3.5315757204,-6576,4.0318822808,410,-8.4756097561,139,-25,-2162,131.8292682927,0,0,-101,-0.4391304348,112,-0.5463414634
9052025,12480.46875,-2352,1.4420600858,5632,3.45309626,-6944,4.2575107296,361,-21.9512195122,360,-22.012195122,-2158,131.5853658537,5,-0.0217391304,-96,-0.4173913043,113,-0.5512195122
9052665,12500,-2848,1.7461679951,5488,3.364806867,-7296,4.4733292459,361,-21.9512195122,360,-22.012195122,-2158,131.5853658537,5,-0.0217391304,-88,-0.3826086957,110,-0.5365853659
9053305,12519.53125,-3600,2.2072348253,5184,3.1784181484,-7952,4.8755364807,135,-35.0609756098,575,-8.2317073171,-2146,130.8536585366,10,-0.0434782609,-86,-0.3739130435,111,-0.5414634146
9053945,12539.0625,-4144,2.5407725322,4880,2.9920294298,-8560,5.2483139178,-165,-45.5487804878,747,10.0609756098,-2111,128.7195121951,10,-0.0434782609,-84,-0.3652173913,113,-0.5512195122
9054585,12558.59375,-4048,2.4819129368,4208,2.5800122624,-8864,5.4347026364,-165,-45.5487804878,747,10.0609756098,-2111,128.7195121951,14,-0.0608695652,-75,-0.3260869565,114,-0.556097561
9055225,12578.125,-4144,2.5407725322,3488,2.1385652974,-9616,5.8957694666,-324,-58.3536585366,957,19.756097561,-2049,124.9390243902,16,-0.0695652174,-75,-0.3260869565,114,-0.556097561
9055865,12597.65625,-4224,2.589822195,2928,1.7952176579,-10784,6.6118945432,-324,-58.3536585366,957,19.756097561,-2049,124.9390243902,16,-0.0695652174,-69,-0.3,116,-0.5658536585
9056505,12617.1875,-4336,2.6584917229,2240,1.3733905579,-11056,6.7786633967,-136,-66.5243902439,1091,8.2926829268,-1976,120.487804878,14,-0.0608695652,-59,-0.2565217391,117,-0.5707317073
9057145,12636.71875,-4640,2.8448804414,1248,0.7651747394,-10496,6.4353157572,-161,-73.9634146341,1213,9.8170731707,-1903,116.0365853659,16,-0.0695652174,-52,-0.2260869565,118,-0.5756097561
9057785,12656.25,-5360,3.2863274065,432,0.264868179,-11696,7.171060699,-161,-73.9634146341,1213,9.8170731707,-1903,116.0365853659,14,-0.0608695652,-47,-0.2043478261,115,-0.5609756098
9058425,12675.78125,-5328,3.2667075414,64,0.0392397302,-12848,7.877375843,-181,-78.5975609756,1289,11.0365853659,-1924,117.3170731707,16,-0.0695652174,-48,-0.2086956522,119,-0.5804878049
9059065,12695.3125,-5392,3.3059472716,-560,-0.3433476395,-12576,7.7106069896,-181,-78.5975609756,1289,11.0365853659,-1924,117.3170731707,14,-0.0608695652,-39,-0.1695652174,118,-0.5756097561
9059705,12714.84375,-5568,3.4138565297,-1552,-0.951563458,-12688,7.7792765175,-317,-81.5853658537,1338,19.3292682927,-1811,110.4268292683,13,-0.0565217391,-34,-0.147826087,120,-0.5853658537
9060345,12734.375,-5152,3.1587982833,-2656,-1.6284488044,-13504,8.2795830779,-448,-86.9512195122,1426,27.3170731707,-1745,106.4024390244,14,-0.0608695652,-34,-0.147826087,121,-0.5902439024
9060985,12753.90625,-4256,2.6094420601,-3280,-2.0110361741,-14288,8.7602697731,-448,-86.9512195122,1426,27.3170731707,-1745,106.4024390244,13,-0.0565217391,-27,-0.1173913043,121,-0.5902439024
9061625,12773.4375,-3792,2.3249540159,-3792,-2.3249540159,-14832,9.0938074801,-222,-89.5731707317,1469,13.5365853659,-1690,103.0487804878,11,-0.047826087,-22,-0.0956521739,119,-0.5804878049
9062265,12792.96875,-3408,2.0895156346,-4480,-2.7467811159,-15424,9.4567749847,-222,-89.5731707317,1469,13.5365853659,-1690,103.0487804878,7,-0.0304347826,-12,-0.052173913,118,-0.5756097561
9062905,12812.5,-3088,1.8933169834,-5392,-3.3059472716,-15952,9.780502759,163,-91.0365853659,1493,-9.9390243902,-1617,98.5975609756,9,-0.0391304348,-15,-0.0652173913,119,-0.5804878049
9063545,12832.03125,-3504,2.1483752299,-6496,-3.982832618,-16512,10.1238503985,445,-88.2926829268,1448,-27.1341463415,-1568,95.6097560976,6,-0.0260869565,-2,-0.0086956522,116,-0.5658536585
9064185,12851.5625,-4560,2.7958307787,-7536,-4.6204782342,-18032,11.0557939914,445,-88.2926829268,1448,-27.1341463415,-1568,95.6097560976,4,-0.0173913043,-1,-0.0043478261,114,-0.556097561
9064825,12871.09375,-4864,2.9822194972,-7952,-4.8755364807,-18048,11.065603924,413,-73.4146341463,1204,-25.1829268293,-1705,103.9634146341,4,-0.0173913043,2,0.0086956522,112,-0.5463414634
9065465,12890.625,-4880,2.9920294298,-8752,-5.3660331085,-17360,10.643776824,-26,-62.5609756098,1026,1.5853658537,-1813,110.5487804878,1,-0.0043478261,4,0.0173913043,113,-0.5512195122
9066105,12910.15625,-4304,2.6388718578,-10000,-6.1312078479,-17056,10.4573881055,-26,-62.5609756098,1026,1.5853658537,-1813,110.5487804878,-1,0.0043478261,10,0.0434782609,110,-0.5365853659
9066745,12929.6875,-4080,2.501532802,-11008,-6.749233599,-18448,11.3108522379,-1,-53.3536585366,875,0.0609756098,-1932,117.8048780488,-1,0.0043478261,14,0.0608695652,109,-0.5317073171
9067385,12949.21875,-3808,2.3347639485,-10800,-6.6217044758,-18896,11.5855303495,-1,-53.3536585366,875,0.0609756098,-1932,117.8048780488,-6,0.0260869565,17,0.0739130435,108,-0.5268292683
9068025,12968.75,-4032,2.4721030043,-11136,-6.8277130595,-19120,11.7228694053,210,-38.6585365854,634,-12.8048780488,-2054,125.243902439,-10,0.0434782609,21,0.0913043478,108,-0.5268292683
9068665,12988.28125,-4768,2.9233599019,-11984,-7.347639485,-20112,12.3310852238,465,-23.6585365854,388,-28.3536585366,-2075,126.5243902439,-12,0.052173913,22,0.0956521739,105,-0.512195122
9069305,13007.8125,-5968,3.6591048437,-12384,-7.5928877989,-21248,13.0275904353,465,-23.6585365854,388,-28.3536585366,-2075,126.5243902439,-12,0.052173913,26,0.1130434783,104,-0.5073170732
9069945,13027.34375,-7040,4.316370325,-12448,-7.6321275291,-22128,13.5671367259,311,2.3170731707,-38,-18.9634146341,-2238,136.4634146341,-16,0.0695652174,28,0.1217391304,102,-0.4975609756
9070585,13046.875,-7088,4.3458001226,-12752,-7.8185162477,-22512,13.8025751073,311,2.3170731707,-38,-18.9634146341,-2238,136.4634146341,-20,0.0869565217,29,0.1260869565,104,-0.5073170732
9071225,13066.40625,-6704,4.1103617413,-12848,-7.877375843,-22464,13.7731453096,-111,30.487804878,-500,6.7682926829,-2272,138.5365853659,-23,0.1,33,0.1434782609,104,-0.5073170732
9071865,13085.9375,-6944,4.2575107296,-12960,-7.9460453709,-22144,13.5769466585,-64,49.8170731707,-817,3.9024390244,-2160,131.7073170732,-25,0.1086956522,33,0.1434782609,105,-0.512195122
9072505,13105.46875,-6752,4.1397915389,-13008,-7.9754751686,-21664,13.2826486818,-64,49.8170731707,-817,3.9024390244,-2160,131.7073170732,-29,0.1260869565,36,0.1565217391,106,-0.5170731707
9073145,13125,-6624,4.0613120785,-12832,-7.8675659105,-21136,12.9589209074,177,68.0487804878,-1116,-10.7926829268,-1998,121.8292682927,-32,0.1391304348,42,0.1826086957,108,-0.5268292683
9073785,13144.53125,-6784,4.159411404,-12272,-7.524218271,-20688,12.6842427958,470,82.5,-1353,-28.6585365854,-1683,102.6219512195,-35,0.152173913,42,0.1826086957,109,-0.5317073171
9074425,13164.0625,-7216,4.4242795831,-11792,-7.2299202943,-20640,12.6548129982,470,82.5,-1353,-28.6585365854,-1683,102.6219512195,-37,0.1608695652,42,0.1826086957,108,-0.5268292683
9075065,13183.59375,-7664,4.6989576947,-11664,-7.1514408338,-20544,12.5959534028,549,97.6219512195,-1601,-33.4756097561,-1365,83.2317073171,-39,0.1695652174,38,0.1652173913,111,-0.5414634146
9075705,13203.125,-8304,5.0913549969,-11376,-6.9748620478,-19888,12.193746168,549,97.6219512195,-1601,-33.4756097561,-1365,83.2317073171,-40,0.1739130435,41,0.1782608696,113,-0.5512195122
9076345,13222.65625,-8528,5.2286940527,-10656,-6.5334150828,-19120,11.7228694053,245,112.6829268293,-1848,-14.9390243902,-1070,65.243902439,-42,0.1826086957,39,0.1695652174,115,-0.5609756098
9076985,13242.1875,-8256,5.0619251993,-10096,-6.1900674433,-18640,11.4285714286,-61,125.0609756098,-2051,3.7195121951,-834,50.8536585366,-41,0.1782608696,36,0.1565217391,119,-0.5804878049
9077625,13261.71875,-8032,4.9245861435,-9840,-6.0331085224,-18160,11.1342734519,-61,125.0609756098,-2051,3.7195121951,-834,50.8536585366,-41,0.1782608696,33,0.1434782609,123,-0.6
9078265,13281.25,-8112,4.9736358063,-9232,-5.6603310852,-17312,10.6143470264,-177,133.3536585366,-2187,10.7926829268,-560,34.1463414634,-43,0.1869565217,35,0.152173913,124,-0.6048780488
9078905,13300.78125,-8080,4.9540159411,-8544,-5.2385039853,-16816,10.3102391171,-177,133.3536585366,-2187,10.7926829268,-560,34.1463414634,-44,0.1913043478,32,0.1391304348,128,-0.6243902439
9079545,13320.3125,-7632,4.6793378296,-7776,-4.7676272226,-16272,9.9767014102,-457,136.8902439024,-2245,27.8658536585,-348,21.2195121951,-44,0.1913043478,28,0.1217391304,131,-0.6390243902
9080185,13339.84375,-6896,4.2280809319,-7072,-4.3359901901,-15472,9.4862047823,-429,139.2073170732,-2283,26.1585365854,-146,8.9024390244,-45,0.1956521739,30,0.1304347826,132,-0.643902439
9080825,13359.375,-6464,3.9632127529,-6352,-3.894543225,-14720,9.0251379522,-429,139.2073170732,-2283,26.1585365854,-146,8.9024390244,-45,0.1956521739,25,0.1086956522,136,-0.6634146341
9081465,13378.90625,-6432,3.9435928878,-5520,-3.3844267321,-14368,8.8093194359,-106,135.4268292683,-2221,6.4634146341,80,-4.8780487805,-44,0.1913043478,22,0.0956521739,139,-0.6780487805
9082105,13398.4375,-6272,3.8454935622,-4816,-2.9527896996,-13728,8.4169221337,22,133.1097560976,-2183,-1.3414634146,293,-17.8658536585,-45,0.1956521739,17,0.0739130435,145,-0.7073170732
9082745,13417.96875,-5712,3.5021459227,-4016,-2.4622930717,-12800,7.8479460454,22,133.1097560976,-2183,-1.3414634146,293,-17.8658536585,-45,0.1956521739,21,0.0913043478,143,-0.6975609756
9083385,13437.5,-5296,3.2470876763,-3328,-2.0404659718,-12032,7.3770692826,215,127.8048780488,-2096,-13.1097560976,515,-31.4024390244,-41,0.1782608696,11,0.047826087,148,-0.7219512195
9084025,13457.03125,-5120,3.1391784181,-2256,-1.3832004905,-11296,6.925812385,215,127.8048780488,-2096,-13.1097560976,515,-31.4024390244,-43,0.1869565217,11,0.047826087,149,-0.7268292683
9084665,13476.5625,-5072,3.1097486205,-1024,-0.6278356836,-10720,6.572654813,512,119.756097561,-1964,-31.2195121951,778,-47.4390243902,-39,0.1695652174,1,0.0043478261,152,-0.7414634146
9085305,13496.09375,-5312,3.2568976088,-176,-0.1079092581,-10128,6.2096873084,494,106.4024390244,-1745,-30.1219512195,1031,-62.8658536585,-37,0.1608695652,-1,-0.0043478261,151,-0.7365853659
9085945,13515.625,-5264,3.2274678112,512,0.3139178418,-9392,5.7584304108,494,106.4024390244,-1745,-30.1219512195,1031,-62.8658536585,-34,0.147826087,-7,-0.0304347826,153,-0.7463414634
9086585,13535.15625,-4832,2.9625996321,1344,0.8240343348,-9184,5.6309012876,160,92.6219512195,-1519,-9.756097561,1197,-72.987804878,-34,0.147826087,-6,-0.0260869565,154,-0.7512195122
9087225,13554.6875,-4336,2.6584917229,1664,1.0202329859,-9088,5.5720416922,160,92.6219512195,-1519,-9.756097561,1197,-72.987804878,-33,0.1434782609,-10,-0.0434782609,155,-0.756097561
9087865,13574.21875,-3424,2.0993255671,2304,1.4126302882,-8448,5.1796443899,3,81.0365853659,-1329,-0.1829268293,1329,-81.0365853659,-30,0.1304347826,-16,-0.0695652174,156,-0.7609756098
9088505,13593.75,-2592,1.5892090742,2864,1.7559779277,-7664,4.6989576947,79,63.7195121951,-1045,-4.8170731707,1426,-86.9512195122,-30,0.1304347826,-21,-0.0913043478,157,-0.7658536585
9089145,13613.28125,-2240,1.3733905579,3536,2.167995095,-7216,4.4242795831,79,63.7195121951,-1045,-4.8170731707,1426,-86.9512195122,-32,0.1391304348,-19,-0.0826086957,157,-0.7658536585
9089785,13632.8125,-1968,1.2066217045,4256,2.6094420601,-6672,4.0907418761,236,44.756097561,-734,-14.3902439024,1549,-94.4512195122,-31,0.1347826087,-24,-0.1043478261,157,-0.7658536585
9090425,13652.34375,-1872,1.1477621091,4880,2.9920294298,-6384,3.9141630901,236,44.756097561,-734,-14.3902439024,1549,-94.4512195122,-28,0.1217391304,-30,-0.1304347826,158,-0.7707317073
9091065,13671.875,-1904,1.1673819742,5552,3.4040465972,-6592,4.0416922134,446,22.256097561,-365,-27.1951219512,1686,-102.8048780488,-27,0.1173913043,-32,-0.1391304348,157,-0.7658536585
9091705,13691.40625,-1408,0.863274065,6000,3.6787247088,-6544,4.0122624157,430,1.2804878049,-21,-26.2195121951,1775,-108.2317073171,-28,0.1217391304,-31,-0.1347826087,158,-0.7707317073
9092345,13710.9375,-736,0.4512568976,5840,3.5806253832,-6464,3.9632127529,430,1.2804878049,-21,-26.2195121951,1775,-108.2317073171,-29,0.1260869565,-35,-0.152173913,156,-0.7609756098
9092985,13730.46875,-288,0.176578786,5712,3.5021459227,-6880,4.2182709994,508,-22.0731707317,362,-30.9756097561,1898,-115.7317073171,-24,0.1043478261,-37,-0.1608695652,158,-0.7707317073
9093625,13750,-480,0.2942979767,5376,3.2961373391,-7312,4.4831391784,459,-42.743902439,701,-27.987804878,2056,-125.3658536585,-25,0.1086956522,-38,-0.1652173913,157,-0.7658536585
9094265,13769.53125,-1248,0.7651747394,4752,2.9135499693,-7248,4.4438994482,459,-42.743902439,701,-27.987804878,2056,-125.3658536585,-24,0.1043478261,-38,-0.1652173913,155,-0.756097561
9094905,13789.0625,-960,0.5885959534,4416,2.7075413857,-7184,4.404659718,27,-61.5243902439,1009,-1.6463414634,2061,-125.6707317073,-24,0.1043478261,-38,-0.1652173913,155,-0.756097561
9095545,13808.59375,528,-0.3237277744,4064,2.4917228694,-7888,4.8362967505,27,-61.5243902439,1009,-1.6463414634,2061,-125.6707317073,-24,0.1043478261,-41,-0.1782608696,158,-0.7707317073
9096185,13828.125,1632,-1.0006131208,3168,1.9423666462,-9024,5.532801962,-5,-79.2073170732,1299,0.3048780488,2186,-133.2926829268,-27,0.1173913043,-39,-0.1695652174,158,-0.7707317073
9096825,13847.65625,1504,-0.9221336603,1760,1.0790925812,-9824,6.0232985898,99,-90.3658536585,1482,-6.0365853659,2318,-141.3414634146,-24,0.1043478261,-37,-0.1608695652,156,-0.7609756098
9097465,13867.1875,1024,-0.6278356836,1152,0.7063151441,-10096,6.1900674433,99,-90.3658536585,1482,-6.0365853659,2318,-141.3414634146,-24,0.1043478261,-37,-0.1608695652,157,-0.7658536585
9098105,13886.71875,1552,-0.951563458,1120,0.686695279,-11040,6.7688534641,-447,-102.3170731707,1678,27.256097561,2110,-128.6585365854,-28,0.1217391304,-39,-0.1695652174,159,-0.7756097561
9098745,13906.25,2304,-1.4126302882,368,0.2256284488,-12304,7.5438381361,-447,-102.3170731707,1678,27.256097561,2110,-128.6585365854,-30,0.1304347826,-39,-0.1695652174,160,-0.7804878049
9099385,13925.78125,3120,-1.9129368486,-1104,-0.6768853464,-12416,7.612507664,-429,-104.756097561,1718,26.1585365854,2317,-141.2804878049,-29,0.1260869565,-37,-0.1608695652,159,-0.7756097561
9100025,13945.3125,2816,-1.72654813,-2272,-1.3930104231,-11984,7.347639485,-478,-106.2195121951,1742,29.1463414634,2322,-141.5853658537,-33,0.1434782609,-34,-0.147826087,159,-0.7756097561
9100665,13964.84375,2768,-1.6971183323,-2848,-1.7461679951,-12832,7.8675659105,-478,-106.2195121951,1742,29.1463414634,2322,-141.5853658537,-34,0.147826087,-35,-0.152173913,161,-0.7853658537
9101305,13984.375,4000,-2.4524831392,-3552,-2.1778050276,-14704,9.0153280196,-813,-110,1804,49.5731707317,2192,-133.6585365854,-36,0.1565217391,-30,-0.1304347826,161,-0.7853658537
9101945,14003.90625,4736,-2.9037400368,-4608,-2.8252605763,-14992,9.1919068056,-481,-109.1463414634,1790,29.3292682927,2317,-141.2804878049,-37,0.1608695652,-32,-0.1391304348,162,-0.7902439024
9102585,14023.4375,4576,-2.8056407112,-6096,-3.7375843041,-14608,8.9564684243,-481,-109.1463414634,1790,29.3292682927,2317,-141.2804878049,-40,0.1739130435,-24,-0.1043478261,161,-0.7853658537
9103225,14042.96875,3952,-2.4230533415,-7408,-4.5419987738,-15936,9.7706928265,-423,-110.9146341463,1819,25.7926829268,2204,-134.3902439024,-39,0.1695652174,-21,-0.0913043478,161,-0.7853658537
9103865,14062.5,4128,-2.5309625996,-8208,-5.0324954016,-18416,11.2912323728,-423,-110.9146341463,1819,25.7926829268,2204,-134.3902439024,-41,0.1782608696,-20,-0.0869565217,162,-0.7902439024
9104505,14082.03125,4240,-2.5996321275,-9008,-5.5229920294,-19408,11.8994481913,-542,-97.6219512195,1601,33.0487804878,2181,-132.987804878,-41,0.1782608696,-24,-0.1043478261,162,-0.7902439024
9105145,14101.5625,3968,-2.4328632741,-9904,-6.0723482526,-19760,12.1152667075,-373,-84.2073170732,1381,22.743902439,2188,-133.4146341463,-40,0.1739130435,-23,-0.1,163,-0.7951219512
9105785,14121.09375,3712,-2.2759043532,-10432,-6.396076027,-20464,12.54690374,-373,-84.2073170732,1381,22.743902439,2188,-133.4146341463,-42,0.1826086957,-17,-0.0739130435,161,-0.7853658537
9106425,14140.625,3696,-2.2660944206,-10832,-6.6413243409,-20816,12.7627222563,-534,-66.2195121951,1086,32.5609756098,2102,-128.1707317073,-43,0.1869565217,-19,-0.0826086957,161,-0.7853658537
9107065,14160.15625,3712,-2.2759043532,-11584,-7.1023911711,-20800,12.7529123237,-534,-66.2195121951,1086,32.5609756098,2102,-128.1707317073,-42,0.1826086957,-16,-0.0695652174,162,-0.7902439024
9107705,14179.6875,3648,-2.2366646229,-12080,-7.4064990803,-20048,12.2918454936,-514,-45.7926829268,751,31.3414634146,2130,-129.8780487805,-43,0.1869565217,-17,-0.0739130435,163,-0.7951219512
9108345,14199.21875,3584,-2.1974248927,-11728,-7.1906805641,-19584,12.0073574494,-674,-27.6219512195,453,41.0975609756,2023,-123.3536585366,-44,0.1913043478,-16,-0.0695652174,161,-0.7853658537
9108985,14218.75,3952,-2.4230533415,-10784,-6.6118945432,-20144,12.3507050889,-674,-27.6219512195,453,41.0975609756,2023,-123.3536585366,-48,0.2086956522,-16,-0.0695652174,163,-0.7951219512
9109625,14238.28125,4944,-3.03126916,-10976,-6.7296137339,-20864,12.792152054,-792,-15.7317073171,258,48.2926829268,2090,-127.4390243902,-45,0.1956521739,-17,-0.0739130435,161,-0.7853658537
9110265,14257.8125,5360,-3.2863274065,-11936,-7.3182096873,-21008,12.880441447,-481,1.9512195122,-32,29.3292682927,2268,-138.2926829268,-47,0.2043478261,-24,-0.1043478261,165,-0.8048780488
9110905,14277.34375,5616,-3.4432863274,-12112,-7.4261189454,-21408,13.1256897609,-481,1.9512195122,-32,29.3292682927,2268,-138.2926829268,-46,0.2,-22,-0.0956521739,164,-0.8
9111545,14296.875,6112,-3.7473942367,-11792,-7.2299202943,-22032,13.5082771306,-521,20.487804878,-336,31.7682926829,2286,-139.3902439024,-48,0.2086956522,-24,-0.1043478261,166,-0.8097560976
9112185,14316.40625,6848,-4.1986511343,-11536,-7.0729613734,-22256,13.6456161864,-521,20.487804878,-336,31.7682926829,2286,-139.3902439024,-49,0.2130434783,-26,-0.1130434783,167,-0.8146341463
9112825,14335.9375,7856,-4.8166768853,-11488,-7.0435315757,-22400,13.7339055794,-432,39.8780487805,-654,26.3414634146,2206,-134.512195122,-48,0.2086956522,-28,-0.1217391304,166,-0.8097560976
9113465,14355.46875,8768,-5.3758430411,-11456,-7.0239117106,-22000,13.4886572655,-249,59.756097561,-980,15.1829268293,1974,-120.3658536585,-48,0.2086956522,-33,-0.1434782609,167,-0.8146341463
9114105,14375,9456,-5.797670141,-11552,-7.0827713059,-21744,13.3316983446,-249,59.756097561,-980,15.1829268293,1974,-120.3658536585,-49,0.2130434783,-37,-0.1608695652,168,-0.8195121951
9114745,14394.53125,9968,-6.1115879828,-11424,-7.0042918455,-21840,13.3905579399,-88,77.3780487805,-1269,5.3658536585,1602,-97.6829268293,-49,0.2130434783,-41,-0.1782608696,168,-0.8195121951
9115385,14414.0625,10352,-6.3470263642,-10864,-6.660944206,-21824,13.3807480074,-88,77.3780487805,-1269,5.3658536585,1602,-97.6829268293,-47,0.2043478261,-42,-0.1826086957,167,-0.8146341463
9116025,14433.59375,10592,-6.4941753525,-9984,-6.1213979154,-21600,13.2434089516,75,97.256097561,-1595,-4.5731707317,1283,-78.2317073171,-48,0.2086956522,-50,-0.2173913043,167,-0.8146341463
9116665,14453.125,10624,-6.5137952177,-9392,-5.7584304108,-20944,12.8412017167,226,113.5975609756,-1863,-13.7804878049,1002,-61.0975609756,-48,0.2086956522,-53,-0.2304347826,168,-0.8195121951
9117305,14472.65625,9952,-6.1017780503,-9072,-5.5622317597,-20000,12.2624156959,226,113.5975609756,-1863,-13.7804878049,1002,-61.0975609756,-47,0.2043478261,-58,-0.252173913,167,-0.8146341463
9117945,14492.1875,9168,-5.621091355,-8560,-5.2483139178,-19296,11.8307786634,112,125.243902439,-2054,-6.8292682927,644,-39.2682926829,-47,0.2043478261,-63,-0.2739130435,166,-0.8097560976
9118585,14511.71875,8944,-5.4837522992,-7664,-4.6989576947,-18320,11.2323727774,112,125.243902439,-2054,-6.8292682927,644,-39.2682926829,-48,0.2086956522,-70,-0.3043478261,165,-0.8048780488
9119225,14531.25,8912,-5.4641324341,-6848,-4.1986511343,-17296,10.6045370938,-165,137.256097561,-2251,10.0609756098,266,-16.2195121951,-50,0.2173913043,-68,-0.2956521739,165,-0.8048780488
9119865,14550.78125,8624,-5.2875536481,-6128,-3.7572041692,-16400,10.0551808706,-147,142.3170731707,-2334,8.9634146341,-42,2.5609756098,-48,0.2086956522,-72,-0.3130434783,161,-0.7853658537
9120505,14570.3125,8128,-4.9834457388,-5440,-3.3353770693,-15328,9.3979153893,-147,142.3170731707,-2334,8.9634146341,-42,2.5609756098,-48,0.2086956522,-82,-0.3565217391,162,-0.7902439024
9121145,14589.84375,7520,-4.6106683017,-4528,-2.7762109135,-14448,8.8583690987,-155,142.1951219512,-2332,9.4512195122,-306,18.6585365854,-48,0.2086956522,-89,-0.3869565217,159,-0.7756097561
9121785,14609.375,7152,-4.3850398529,-3360,-2.0600858369,-13648,8.3678724709,-188,139.4512195122,-2287,11.4634146341,-576,35.1219512195,-49,0.2130434783,-89,-0.3869565217,158,-0.7707317073
9122425,14628.90625,6896,-4.2280809319,-2032,-1.2458614347,-12704,7.78908645,-188,139.4512195122,-2287,11.4634146341,-576,35.1219512195,-48,0.2086956522,-95,-0.4130434783,154,-0.7512195122
9123065,14648.4375,6672,-4.0907418761,-992,-0.6082158185,-11728,7.1906805641,-198,132.3780487805,-2171,12.0731707317,-783,47.743902439,-46,0.2,-99,-0.4304347826,153,-0.7463414634
9123705,14667.96875,6368,-3.9043531576,-112,-0.0686695279,-10800,6.6217044758,-198,132.3780487805,-2171,12.0731707317,-783,47.743902439,-44,0.1913043478,-105,-0.4565217391,149,-0.7268292683
9124345,14687.5,6000,-3.6787247088,640,0.3923973023,-10432,6.396076027,-205,120.7317073171,-1980,12.5,-965,58.8414634146,-43,0.1869565217,-105,-0.4565217391,146,-0.712195122
9124985,14707.03125,5664,-3.4727161251,1520,0.9319435929,-9776,5.9938687922,-254,111.8292682927,-1834,15.487804878,-1155,70.4268292683,-42,0.1826086957,-107,-0.4652173913,143,-0.6975609756
9125625,14726.5625,5456,-3.3451870018,2336,1.4322501533,-9104,5.5818516248,-254,111.8292682927,-1834,15.487804878,-1155,70.4268292683,-40,0.1739130435,-111,-0.4826086957,143,-0.6975609756
9126265,14746.09375,5136,-3.1489883507,2912,1.7854077253,-8752,5.3660331085,-300,97.987804878,-1607,18.2926829268,-1328,80.9756097561,-38,0.1652173913,-113,-0.4913043478,140,-0.6829268293
9126905,14765.625,4544,-2.7860208461,3488,2.1385652974,-8560,5.2483139178,-300,97.987804878,-1607,18.2926829268,-1328,80.9756097561,-38,0.1652173913,-112,-0.4869565217,135,-0.6585365854
9127545,14785.15625,4080,-2.501532802,4176,2.5603923973,-8576,5.2581238504,-267,84.0853658537,-1379,16.2804878049,-1489,90.7926829268,-33,0.1434782609,-112,-0.4869565217,134,-0.6536585366
9128185,14804.6875,3760,-2.3053341508,4912,3.0116492949,-8272,5.0717351318,-305,71.0365853659,-1165,18.5975609756,-1638,99.8780487805,-35,0.152173913,-115,-0.5,133,-0.6487804878
9128825,14824.21875,3584,-2.1974248927,5472,3.3549969344,-7808,4.7872470877,-305,71.0365853659,-1165,18.5975609756,-1638,99.8780487805,-30,0.1304347826,-110,-0.4782608696,132,-0.643902439
9129465,14843.75,3056,-1.8736971183,5904,3.6198651134,-7648,4.6891477621,-157,55.1219512195,-904,9.5731707317,-1758,107.1951219512,-27,0.1173913043,-113,-0.4913043478,130,-0.6341463415
9130105,14863.28125,2336,-1.4322501533,6160,3.7768240343,-7952,4.8755364807,13,40.1219512195,-658,-0.7926829268,-1837,112.012195122,-24,0.1043478261,-107,-0.4652173913,127,-0.6195121951
9130745,14882.8125,1456,-0.8927038627,6480,3.9730226855,-8128,4.9834457388,13,40.1219512195,-658,-0.7926829268,-1837,112.012195122,-21,0.0913043478,-112,-0.4869565217,128,-0.6243902439
9131385,14902.34375,912,-0.5591661557,6752,4.1397915389,-7952,4.8755364807,-17,27.4390243902,-450,1.0365853659,-1883,114.8170731707,-17,0.0739130435,-110,-0.4782608696,128,-0.6243902439
9132025,14921.875,576,-0.353157572,6864,4.2084610668,-7840,4.8068669528,-17,27.4390243902,-450,1.0365853659,-1883,114.8170731707,-16,0.0695652174,-105,-0.4565217391,125,-0.6097560976
9132665,14941.40625,256,-0.1569589209,6896,4.2280809319,-8096,4.9638258737,-3,12.3780487805,-203,0.1829268293,-1908,116.3414634146,-13,0.0565217391,-105,-0.4565217391,126,-0.6146341463
9133305,14960.9375,-304,0.1863887186,6736,4.1299816064,-7680,4.7087676272,-25,0.0609756098,-1,1.5243902439,-1907,116.2804878049,-10,0.0434782609,-103,-0.447826087,124,-0.6048780488
9133945,14980.46875,-720,0.4414469651,6448,3.9534028204,-7280,4.4635193133,-25,0.0609756098,-1,1.5243902439,-1907,116.2804878049,-8,0.0347826087,-97,-0.4217391304,125,-0.6097560976
9134585,15000,-768,0.4708767627,6480,3.9730226855,-7168,4.3948497854,-83,-16.1585365854,265,5.0609756098,-1946,118.6585365854,-5,0.0217391304,-93,-0.4043478261,124,-0.6048780488
9135225,15019.53125,-544,0.3335377069,6272,3.8454935622,-7552,4.6302881668,-83,-16.1585365854,265,5.0609756098,-1946,118.6585365854,-2,0.0086956522,-92,-0.4,126,-0.6146341463
9135865,15039.0625,-1040,0.6376456162,5840,3.5806253832,-8064,4.9442060086,105,-33.8414634146,555,-6.4024390244,-1921,117.1341463415,0,0,-86,-0.3739130435,126,-0.6146341463
9136505,15058.59375,-1328,0.8142244022,5424,3.3255671367,-8000,4.9049662784,110,-47.3170731707,776,-6.7073170732,-1894,115.487804878,2,-0.0086956522,-80,-0.347826087,127,-0.6195121951
9137145,15078.125,-656,0.4022072348,4512,2.766400981,-6768,4.1496014715,110,-47.3170731707,776,-6.7073170732,-1894,115.487804878,3,-0.0130434783,-82,-0.3565217391,128,-0.6243902439
9137785,15097.65625,-480,0.2942979767,3488,2.1385652974,-6880,4.2182709994,76,-68.7804878049,1128,-4.6341463415,-1800,109.756097561,5,-0.0217391304,-73,-0.3173913043,126,-0.6146341463
9138425,15117.1875,-800,0.4904966278,2736,1.6774984672,-8256,5.0619251993,451,-85.9146341463,1409,-27.5,-1790,109.1463414634,2,-0.0086956522,-69,-0.3,126,-0.6146341463
9139065,15136.71875,-1776,1.0889025138,2480,1.5205395463,-8480,5.1992642551,451,-85.9146341463,1409,-27.5,-1790,109.1463414634,8,-0.0347826087,-63,-0.2739130435,127,-0.6195121951
9139705,15156.25,-2432,1.4911097486,1840,1.128142244,-8128,4.9834457388,145,-95.6707317073,1569,-8.8414634146,-1868,113.9024390244,7,-0.0304347826,-55,-0.2391304348,127,-0.6195121951
9140345,15175.78125,-2192,1.3439607603,768,0.4708767627,-8640,5.2973635806,145,-95.6707317073,1569,-8.8414634146,-1868,113.9024390244,8,-0.0347826087,-48,-0.2086956522,127,-0.6195121951
9140985,15195.3125,-1888,1.1575720417,-240,-0.1471489884,-10096,6.1900674433,-130,-108.5975609756,1781,7.9268292683,-1929,117.6219512195,8,-0.0347826087,-46,-0.2,129,-0.6292682927
9141625,15214.84375,-1760,1.0790925812,-1248,-0.7651747394,-11264,6.9061925199,132,-116.4634146341,1910,-8.0487804878,-1920,117.0731707317,6,-0.0260869565,-37,-0.1608695652,128,-0.6243902439
9142265,15234.375,-1856,1.1379521766,-2400,-1.4714898835,-11776,7.2201103617,132,-116.4634146341,1910,-8.0487804878,-1920,117.0731707317,7,-0.0304347826,-37,-0.1608695652,129,-0.6292682927
9142905,15253.90625,-2272,1.3930104231,-4048,-2.4819129368,-12640,7.7498467198,469,-124.512195122,2042,-28.5975609756,-1755,107.012195122,6,-0.0260869565,-28,-0.1217391304,127,-0.6195121951
9143545,15273.4375,-3264,2.0012262416,-5232,-3.207847946,-13504,8.2795830779,469,-124.512195122,2042,-28.5975609756,-1755,107.012195122,8,-0.0347826087,-24,-0.1043478261,125,-0.6097560976
9144185,15292.96875,-4016,2.4622930717,-6112,-3.7473942367,-14224,8.7210300429,784,-123.9024390244,2032,-47.8048780488,-1717,104.6951219512,5,-0.0217391304,-22,-0.0956521739,124,-0.6048780488
9144825,15312.5,-4160,2.5505824647,-7312,-4.4831391784,-14880,9.1232372777,685,-120.8536585366,1982,-41.7682926829,-1668,101.7073170732,5,-0.0217391304,-13,-0.0565217391,120,-0.5853658537
9145465,15332.03125,-4304,2.6388718578,-8640,-5.2973635806,-15312,9.3881054568,685,-120.8536585366,1982,-41.7682926829,-1668,101.7073170732,4,-0.0173913043,-6,-0.0260869565,118,-0.5756097561
9146105,15351.5625,-4576,2.8056407112,-10176,-6.2391171061,-16432,10.0748007357,517,-117.6829268293,1930,-31.5243902439,-1692,103.1707317073,1,-0.0043478261,2,0.0086956522,116,-0.5658536585
9146745,15371.09375,-4416,2.7075413857,-11392,-6.9846719804,-17840,10.9380748007,517,-117.6829268293,1930,-31.5243902439,-1692,103.1707317073,2,-0.0086956522,-1,-0.0043478261,115,-0.5609756098
9147385,15390.625,-3984,2.4426732066,-12016,-7.3672593501,-18448,11.3108522379,451,-104.8780487805,1720,-27.5,-1713,104.4512195122,0,0,6,0.0260869565,110,-0.5365853659
9148025,15410.15625,-3840,2.3543838136,-12752,-7.8185162477,-19440,11.9190680564,573,-91.7073170732,1504,-34.9390243902,-1717,104.6951219512,-3,0.0130434783,13,0.0565217391,108,-0.5268292683
9148665,15429.6875,-4352,2.6683016554,-13360,-8.1912936849,-20096,12.3212752912,573,-91.7073170732,1504,-34.9390243902,-1717,104.6951219512,-2,0.0086956522,13,0.0565217391,106,-0.5170731707
9149305,15449.21875,-4592,2.8154506438,-13792,-8.4561618639,-20416,12.5174739424,663,-69.2682926829,1136,-40.4268292683,-1805,110.0609756098,-4,0.0173913043,20,0.0869565217,105,-0.512195122
9149945,15468.75,-4560,2.7958307787,-14160,-8.6817903127,-20816,12.7627222563,533,-43.0487804878,706,-32.5,-2007,122.3780487805,-7,0.0304347826,25,0.1086956522,103,-0.5024390244
9150585,15488.28125,-4416,2.7075413857,-14544,-8.9172286941,-21136,12.9589209074,533,-43.0487804878,706,-32.5,-2007,122.3780487805,-8,0.0347826087,21,0.0913043478,100,-0.487804878
9151225,15507.8125,-5216,3.1980380135,-14976,-9.1820968731,-21600,13.2434089516,831,-16.8902439024,277,-50.6707317073,-2165,132.012195122,-13,0.0565217391,28,0.1217391304,99,-0.4829268293
9151865,15527.34375,-6384,3.9141630901,-15296,-9.3782955242,-22304,13.6750459841,831,-16.8902439024,277,-50.6707317073,-2165,132.012195122,-16,0.0695652174,33,0.1434782609,96,-0.4682926829
9152505,15546.875,-7680,4.7087676272,-15584,-9.5548743102,-22544,13.8221949724,935,15.243902439,-250,-57.012195122,-2333,142.256097561,-19,0.0826086957,36,0.1565217391,94,-0.4585365854
9153145,15566.40625,-8304,5.0913549969,-15680,-9.6137339056,-22496,13.7927651747,763,49.2682926829,-808,-46.5243902439,-2356,143.6585365854,-20,0.0869565217,34,0.147826087,95,-0.4634146341
9153785,15585.9375,-8864,5.4347026364,-15488,-9.4960147149,-22080,13.5377069283,763,49.2682926829,-808,-46.5243902439,-2356,143.6585365854,-24,0.1043478261,36,0.1565217391,96,-0.4682926829
9154425,15605.46875,-9376,5.7486204782,-15184,-9.3096259963,-21760,13.3415082771,716,77.5609756098,-1272,-43.6585365854,-2192,133.6585365854,-28,0.1217391304,40,0.1739130435,96,-0.4682926829
9155065,15625,-9536,5.8467198038,-14944,-9.162477008,-21616,13.2532188841,716,77.5609756098,-1272,-43.6585365854,-2192,133.6585365854,-31,0.1347826087,42,0.1826086957,97,-0.4731707317
9155705,15644.53125,-10256,6.2881667689,-14656,-8.9858982219,-21264,13.0374003679,638,99.9390243902,-1639,-38.9024390244,-1898,115.7317073171,-31,0.1347826087,40,0.1739130435,99,-0.4829268293
9156345,15664.0625,-10672,6.5432250153,-14320,-8.7798896383,-20640,12.6548129982,227,119.0853658537,-1953,-13.8414634146,-1566,95.487804878,-35,0.152173913,42,0.1826086957,103,-0.5024390244
9156985,15683.59375,-10544,6.4647455549,-13904,-8.5248313918,-19808,12.1446965052,227,119.0853658537,-1953,-13.8414634146,-1566,95.487804878,-35,0.152173913,42,0.1826086957,102,-0.4975609756
9157625,15703.125,-10128,6.2096873084,-13232,-8.1128142244,-18720,11.4776210914,-330,134.3292682927,-2203,20.1219512195,-1312,80,-40,0.1739130435,43,0.1869565217,107,-0.5219512195
9158265,15722.65625,-9280,5.6897608829,-12496,-7.6615573268,-17840,10.9380748007,-515,140.9756097561,-2312,31.4024390244,-1014,61.8292682927,-39,0.1695652174,41,0.1782608696,111,-0.5414634146
9158905,15742.1875,-8416,5.1600245248,-11696,-7.171060699,-17264,10.5849172287,-515,140.9756097561,-2312,31.4024390244,-1014,61.8292682927,-42,0.1826086957,39,0.1695652174,116,-0.5658536585
9159545,15761.71875,-7680,4.7087676272,-11328,-6.9454322502,-16672,10.2219497241,-390,143.8414634146,-2359,23.7804878049,-690,42.0731707317,-42,0.1826086957,40,0.1739130435,117,-0.5707317073
9160185,15781.25,-7248,4.4438994482,-10544,-6.4647455549,-16224,9.9472716125,-390,143.8414634146,-2359,23.7804878049,-690,42.0731707317,-43,0.1869565217,37,0.1608695652,123,-0.6
9160825,15800.78125,-7088,4.3458001226,-9712,-5.9546290619,-16080,9.8589822195,-184,142.5609756098,-2338,11.2195121951,-403,24.5731707317,-47,0.2043478261,35,0.152173913,124,-0.6048780488
9161465,15820.3125,-6928,4.2477007971,-8784,-5.3856529736,-15536,9.5254445126,-105,142.3170731707,-2334,6.4024390244,-78,4.756097561,-45,0.1956521739,29,0.1260869565,131,-0.6390243902
9162105,15839.84375,-7056,4.3261802575,-7920,-4.8559166156,-14576,8.9368485592,-105,142.3170731707,-2334,6.4024390244,-78,4.756097561,-46,0.2,33,0.1434782609,131,-0.6390243902
9162745,15859.375,-6992,4.2869405273,-6992,-4.2869405273,-14336,8.7896995708,-252,139.3292682927,-2285,15.3658536585,140,-8.5365853659,-45,0.1956521739,24,0.1043478261,136,-0.6634146341
9163385,15878.90625,-6544,4.0122624157,-6064,-3.717964439,-13952,8.5542611895,-252,139.3292682927,-2285,15.3658536585,140,-8.5365853659,-43,0.1869565217,22,0.0956521739,139,-0.6780487805
9164025,15898.4375,-5952,3.6492949111,-5168,-3.1686082158,-13296,8.1520539546,-410,137.0731707317,-2248,25,355,-21.6463414634,-43,0.1869565217,22,0.0956521739,141,-0.687804878
9164665,15917.96875,-5264,3.2274678112,-4320,-2.6486817903,-12576,7.7106069896,-347,130.7317073171,-2144,21.1585365854,494,-30.1219512195,-43,0.1869565217,15,0.0652173913,144,-0.7024390244
9165305,15937.5,-4816,2.9527896996,-3536,-2.167995095,-12272,7.524218271,-347,130.7317073171,-2144,21.1585365854,494,-30.1219512195,-42,0.1826086957,8,0.0347826087,147,-0.7170731707
9165945,15957.03125,-4832,2.9625996321,-2608,-1.5990190067,-11952,7.3280196199,-175,126.2804878049,-2071,10.6707317073,692,-42.1951219512,-42,0.1826086957,12,0.052173913,150,-0.7317073171
9166585,15976.5625,-4864,2.9822194972,-1648,-1.0104230533,-11280,6.9160024525,-339,117.6219512195,-1929,20.6707317073,847,-51.6463414634,-42,0.1826086957,7,0.0304347826,152,-0.7414634146
9167225,15996.09375,-4704,2.8841201717,-688,-0.4218270999,-10400,6.3764561619,-339,117.6219512195,-1929,20.6707317073,847,-51.6463414634,-42,0.1826086957,0,0,154,-0.7512195122
9167865,16015.625,-3952,2.4230533415,-80,-0.0490496628,-10128,6.2096873084,-488,107.987804878,-1771,29.756097561,972,-59.2682926829,-40,0.1739130435,-6,-0.0260869565,157,-0.7658536585
9168505,16035.15625,-3232,1.9816063765,512,0.3139178418,-9440,5.7878602085,-488,107.987804878,-1771,29.756097561,972,-59.2682926829,-42,0.1826086957,-3,-0.0130434783,157,-0.7658536585
9169145,16054.6875,-2576,1.5793991416,1344,0.8240343348,-8512,5.2188841202,-407,96.3414634146,-1580,24.8170731707,1116,-68.0487804878,-41,0.1782608696,-11,-0.047826087,160,-0.7804878049
9169785,16074.21875,-1824,1.1183323115,2368,1.4518700184,-7648,4.6891477621,-132,71.8902439024,-1179,8.0487804878,1197,-72.987804878,-40,0.1739130435,-17,-0.0739130435,161,-0.7853658537
9170425,16093.75,-976,0.598405886,2896,1.7755977928,-7648,4.6891477621,-132,71.8902439024,-1179,8.0487804878,1197,-72.987804878,-41,0.1782608696,-16,-0.0695652174,161,-0.7853658537
9171065,16113.28125,-448,0.2746781116,3376,2.0698957695,-7696,4.7185775598,562,53.9024390244,-884,-34.2682926829,1322,-80.6097560976,-39,0.1695652174,-20,-0.0869565217,160,-0.7804878049
9171705,16132.8125,-976,0.598405886,4192,2.5702023299,-7440,4.5616186389,562,53.9024390244,-884,-34.2682926829,1322,-80.6097560976,-35,0.152173913,-23,-0.1,159,-0.7756097561
9172345,16152.34375,-1920,1.1771919068,4592,2.8154506438,-7040,4.316370325,1113,37.012195122,-607,-67.8658536585,1443,-87.987804878,-34,0.147826087,-27,-0.1173913043,161,-0.7853658537
9172985,16171.875,-2656,1.6284488044,4512,2.766400981,-6528,4.0024524831,840,17.5609756098,-288,-51.2195121951,1623,-98.9634146341,-32,0.1391304348,-29,-0.1260869565,159,-0.7756097561
9173625,16191.40625,-2768,1.6971183323,4224,2.589822195,-6640,4.071122011,840,17.5609756098,-288,-51.2195121951,1623,-98.9634146341,-31,0.1347826087,-29,-0.1260869565,160,-0.7804878049
9174265,16210.9375,-2096,1.2851011649,4592,2.8154506438,-7024,4.3065603924,295,1.0365853659,-17,-17.987804878,1708,-104.1463414634,-29,0.1260869565,-30,-0.1304347826,159,-0.7756097561
9174905,16230.46875,-1504,0.9221336603,5152,3.1587982833,-7632,4.6793378296,295,1.0365853659,-17,-17.987804878,1708,-104.1463414634,-31,0.1347826087,-35,-0.152173913,161,-0.7853658537
9175545,16250,-800,0.4904966278,5056,3.0999386879,-7904,4.846106683,177,-18.2926829268,300,-10.7926829268,1934,-117.9268292683,-30,0.1304347826,-35,-0.152173913,160,-0.7804878049
9176185,16269.53125,-272,0.1667688535,4096,2.5113427345,-8064,4.9442060086,49,-33.6585365854,552,-2.987804878,2187,-133.3536585366,-29,0.1260869565,-38,-0.1652173913,159,-0.7756097561
9176825,16289.0625,-256,0.1569589209,2944,1.8050275904,-8016,4.9147762109,49,-33.6585365854,552,-2.987804878,2187,-133.3536585366,-29,0.1260869565,-39,-0.1695652174,160,-0.7804878049
9177465,16308.59375,224,-0.1373390558,2160,1.3243408952,-7744,4.7480073574,-265,-46.2195121951,758,16.1585365854,2308,-140.7317073171,-32,0.1391304348,-36,-0.1565217391,162,-0.7902439024
9178105,16328.125,1856,-1.1379521766,2704,1.6578786021,-7952,4.8755364807,-319,-63.9634146341,1049,19.4512195122,2379,-145.0609756098,-30,0.1304347826,-42,-0.1826086957,160,-0.7804878049
9178745,16347.65625,3808,-2.3347639485,3104,1.903126916,-9472,5.8074800736,-319,-63.9634146341,1049,19.4512195122,2379,-145.0609756098,-31,0.1347826087,-40,-0.1739130435,162,-0.7902439024
9179385,16367.1875,4320,-2.6486817903,1744,1.0692826487,-9648,5.9153893317,562,-82.012195122,1345,-34.2682926829,2808,-171.2195121951,-33,0.1434782609,-37,-0.1608695652,162,-0.7902439024
9180025,16386.71875,3088,-1.8933169834,224,0.1373390558,-10128,6.2096873084,562,-82.012195122,1345,-34.2682926829,2808,-171.2195121951,-33,0.1434782609,-35,-0.152173913,160,-0.7804878049
9180665,16406.25,2240,-1.3733905579,-704,-0.4316370325,-11712,7.1808706315,646,-99.1463414634,1626,-39.3902439024,2750,-167.6829268293,-30,0.1304347826,-40,-0.1739130435,160,-0.7804878049
9181305,16425.78125,2208,-1.3537706928,-1120,-0.686695279,-12512,7.6713672594,-350,-97.6219512195,1601,21.3414634146,2463,-150.1829268293,-34,0.147826087,-30,-0.1304347826,159,-0.7756097561
9181945,16445.3125,3296,-2.0208461067,-1824,-1.1183323115,-12128,7.435928878,-350,-97.6219512195,1601,21.3414634146,2463,-150.1829268293,-34,0.147826087,-33,-0.1434782609,159,-0.7756097561
9182585,16464.84375,4240,-2.5996321275,-2848,-1.7461679951,-11104,6.8080931944,-719,-98.6585365854,1618,43.8414634146,2370,-144.512195122,-36,0.1565217391,-29,-0.1260869565,161,-0.7853658537
9183225,16484.375,4896,-3.0018393624,-4080,-2.501532802,-10720,6.572654813,-719,-98.6585365854,1618,43.8414634146,2370,-144.512195122,-37,0.1608695652,-35,-0.152173913,163,-0.7951219512
9183865,16503.90625,5312,-3.2568976088,-5616,-3.4432863274,-12096,7.4163090129,-674,-107.8658536585,1769,41.0975609756,2211,-134.8170731707,-41,0.1782608696,-26,-0.1130434783,161,-0.7853658537
9184505,16523.4375,5376,-3.2961373391,-6816,-4.1790312692,-13424,8.2305334151,-517,-109.8780487805,1802,31.5243902439,2127,-129.6951219512,-42,0.1826086957,-27,-0.1173913043,162,-0.7902439024
9185145,16542.96875,4848,-2.9724095647,-7808,-4.7872470877,-13104,8.0343347639,-517,-109.8780487805,1802,31.5243902439,2127,-129.6951219512,-44,0.1913043478,-23,-0.1,163,-0.7951219512
9185785,16562.5,4256,-2.6094420601,-8608,-5.2777437155,-13616,8.3482526058,-554,-112.3170731707,1842,33.7804878049,2078,-126.7073170732,-44,0.1913043478,-21,-0.0913043478,161,-0.7853658537
9186425,16582.03125,4528,-2.7762109135,-9376,-5.7486204782,-15600,9.5646842428,-949,-106.8902439024,1753,57.8658536585,1932,-117.8048780488,-44,0.1913043478,-23,-0.1,163,-0.7951219512
9187065,16601.5625,5664,-3.4727161251,-10352,-6.3470263642,-16960,10.3985285101,-949,-106.8902439024,1753,57.8658536585,1932,-117.8048780488,-48,0.2086956522,-18,-0.0782608696,163,-0.7951219512
9187705,16621.09375,5728,-3.5119558553,-11488,-7.0435315757,-18304,11.2225628449,-478,-99.3292682927,1629,29.1463414634,2134,-130.1219512195,-48,0.2086956522,-15,-0.0652173913,164,-0.8
9188345,16640.625,5072,-3.1097486205,-12192,-7.4751686082,-20032,12.282035561,-478,-99.3292682927,1629,29.1463414634,2134,-130.1219512195,-50,0.2173913043,-16,-0.0695652174,162,-0.7902439024
9188985,16660.15625,4960,-3.0410790926,-12816,-7.8577559779,-21648,13.2728387492,-281,-83.6585365854,1372,17.1341463415,2131,-129.9390243902,-48,0.2086956522,-15,-0.0652173913,163,-0.7951219512
9189625,16679.6875,4992,-3.0606989577,-13648,-8.3678724709,-22592,13.8516247701,-271,-62.4390243902,1024,16.5243902439,2209,-134.6951219512,-46,0.2,-13,-0.0565217391,162,-0.7902439024
9190265,16699.21875,4576,-2.8056407112,-14320,-8.7798896383,-23088,14.1557326793,-271,-62.4390243902,1024,16.5243902439,2209,-134.6951219512,-50,0.2173913043,-9,-0.0391304348,161,-0.7853658537
9190905,16718.75,4032,-2.4721030043,-14192,-8.7014101778,-23792,14.5873697118,-236,-38.7804878049,636,14.3902439024,2204,-134.3902439024,-47,0.2043478261,-13,-0.0565217391,160,-0.7804878049
9191545,16738.28125,4256,-2.6094420601,-14000,-8.5836909871,-24336,14.9209074188,-236,-38.7804878049,636,14.3902439024,2204,-134.3902439024,-47,0.2043478261,-14,-0.0608695652,160,-0.7804878049
9192185,16757.8125,4944,-3.03126916,-14192,-8.7014101778,-24496,15.0190067443,-573,-11.7682926829,193,34.9390243902,2185,-133.2317073171,-46,0.2,-12,-0.052173913,161,-0.7853658537
9192825,16777.34375,5680,-3.4825260576,-14432,-8.8485591662,-24464,14.9993868792,-362,13.8414634146,-227,22.0731707317,2193,-133.7195121951,-45,0.1956521739,-14,-0.0608695652,161,-0.7853658537
9193465,16796.875,5984,-3.6689147762,-14464,-8.8681790313,-24448,14.9895769467,-362,13.8414634146,-227,22.0731707317,2193,-133.7195121951,-47,0.2043478261,-15,-0.0652173913,162,-0.7902439024
9194105,16816.40625,5728,-3.5119558553,-14592,-8.9466584917,-24352,14.9307173513,-212,38.2926829268,-628,12.9268292683,2250,-137.1951219512,-46,0.2,-17,-0.0739130435,164,-0.8
9194745,16835.9375,6048,-3.7081545064,-14656,-8.9858982219,-24304,14.9012875536,-456,66.0365853659,-1083,27.8048780488,2149,-131.0365853659,-46,0.2,-23,-0.1,164,-0.8
9195385,16855.46875,7088,-4.3458001226,-14192,-8.7014101778,-23792,14.5873697118,-456,66.0365853659,-1083,27.8048780488,2149,-131.0365853659,-47,0.2043478261,-26,-0.1130434783,165,-0.8048780488
9196025,16875,8416,-5.1600245248,-13680,-8.387492336,-23056,14.1361128142,-513,92.9268292683,-1524,31.2804878049,1952,-119.0243902439,-46,0.2,-29,-0.1260869565,167,-0.8146341463
9196665,16894.53125,9312,-5.709380748,-13328,-8.1716738197,-22368,13.7142857143,-513,92.9268292683,-1524,31.2804878049,1952,-119.0243902439,-47,0.2043478261,-35,-0.152173913,167,-0.8146341463
9197305,16914.0625,9920,-6.0821581852,-12720,-7.7988963826,-21376,13.1060698958,-389,115.1829268293,-1889,23.7195121951,1693,-103.2317073171,-46,0.2,-43,-0.1869565217,168,-0.8195121951
9197945,16933.59375,10480,-6.4255058246,-11872,-7.2789699571,-20240,12.4095646842,-323,133.1097560976,-2183,19.6951219512,1315,-80.1829268293,-47,0.2043478261,-51,-0.2217391304,169,-0.8243902439
9198585,16953.125,10912,-6.6903740037,-10832,-6.6413243409,-18992,11.6443899448,-323,133.1097560976,-2183,19.6951219512,1315,-80.1829268293,-51,0.2217391304,-50,-0.2173913043,167,-0.8146341463
9199225,16972.65625,10992,-6.7394236665,-9920,-6.0821581852,-17936,10.9969343961,-181,142.8658536585,-2343,11.0365853659,916,-55.8536585366,-50,0.2173913043,-60,-0.2608695652,165,-0.8048780488
9199865,16992.1875,10528,-6.4549356223,-9072,-5.5622317597,-16864,10.3396689148,-181,142.8658536585,-2343,11.0365853659,916,-55.8536585366,-50,0.2173913043,-64,-0.2782608696,167,-0.8146341463
9200505,17011.71875,10160,-6.2293071735,-8192,-5.022685469,-15856,9.7216431637,-211,147.6219512195,-2421,12.8658536585,494,-30.1219512195,-50,0.2173913043,-73,-0.3173913043,166,-0.8097560976
9201145,17031.25,10208,-6.2587369712,-7312,-4.4831391784,-14960,9.1722869405,-345,150.8536585366,-2474,21.0365853659,29,-1.7682926829,-50,0.2173913043,-73,-0.3173913043,164,-0.8
9201785,17050.78125,10368,-6.3568362968,-6272,-3.8454935622,-14000,8.5836909871,-345,150.8536585366,-2474,21.0365853659,29,-1.7682926829,-50,0.2173913043,-80,-0.347826087,161,-0.7853658537
9202425,17070.3125,10064,-6.1704475782,-5200,-3.1882280809,-13120,8.0441446965,-215,148.2317073171,-2431,13.1097560976,-361,22.012195122,-51,0.2217391304,-86,-0.3739130435,163,-0.7951219512
9203065,17089.84375,9312,-5.709380748,-4304,-2.6388718578,-12400,7.6026977315,-38,141.8292682927,-2326,2.3170731707,-677,41.2804878049,-50,0.2173913043,-91,-0.3956521739,159,-0.7756097561
9203705,17109.375,8448,-5.1796443899,-3520,-2.1581851625,-11760,7.2103004292,-38,141.8292682927,-2326,2.3170731707,-677,41.2804878049,-52,0.2260869565,-94,-0.4086956522,154,-0.7512195122
9204345,17128.90625,7504,-4.6008583691,-2448,-1.5009196812,-10992,6.7394236665,-79,134.0853658537,-2199,4.8170731707,-963,58.7195121951,-48,0.2086956522,-99,-0.4304347826,153,-0.7463414634
9204985,17148.4375,6816,-4.1790312692,-1504,-0.9221336603,-10624,6.5137952177,-79,134.0853658537,-2199,4.8170731707,-963,58.7195121951,-49,0.2130434783,-101,-0.4391304348,151,-0.7365853659
9205625,17167.96875,6496,-3.982832618,-416,-0.2550582465,-10544,6.4647455549,-157,123.9634146341,-2033,9.5731707317,-1266,77.1951219512,-46,0.2,-106,-0.4608695652,145,-0.7073170732
9206265,17187.5,6128,-3.7572041692,752,0.4610668302,-10320,6.3274064991,-91,112.8658536585,-1851,5.5487804878,-1506,91.8292682927,-43,0.1869565217,-108,-0.4695652174,144,-0.7024390244
9206905,17207.03125,5616,-3.4432863274,1696,1.039852851,-10400,6.3764561619,-91,112.8658536585,-1851,5.5487804878,-1506,91.8292682927,-41,0.1782608696,-110,-0.4782608696,142,-0.6926829268
9207545,17226.5625,4896,-3.0018393624,2416,1.4812998161,-10400,6.3764561619,96,102.3170731707,-1678,-5.8536585366,-1646,100.3658536585,-38,0.1652173913,-113,-0.4913043478,140,-0.6829268293
9208185,17246.09375,4304,-2.6388718578,2960,1.814837523,-9808,6.0134886573,96,102.3170731707,-1678,-5.8536585366,-1646,100.3658536585,-35,0.152173913,-112,-0.4869565217,135,-0.6585365854
9208825,17265.625,3936,-2.413243409,3360,2.0600858369,-8800,5.3954629062,90,94.4512195122,-1549,-5.487804878,-1748,106.5853658537,-31,0.1347826087,-113,-0.4913043478,133,-0.6487804878
9209465,17285.15625,3456,-2.1189454323,3824,2.3445738811,-7952,4.8755364807,166,80.487804878,-1320,-10.1219512195,-1885,114.9390243902,-30,0.1304347826,-109,-0.4739130435,132,-0.643902439
9210105,17304.6875,2736,-1.6774984672,4256,2.6094420601,-7104,4.3556100552,166,80.487804878,-1320,-10.1219512195,-1885,114.9390243902,-26,0.1130434783,-110,-0.4782608696,130,-0.6341463415
9210745,17324.21875,2016,-1.2360515021,4848,2.9724095647,-6768,4.1496014715,254,64.2073170732,-1053,-15.487804878,-2047,124.8170731707,-21,0.0913043478,-114,-0.4956521739,127,-0.6195121951
9211385,17343.75,1456,-0.8927038627,5328,3.2667075414,-6880,4.2182709994,254,64.2073170732,-1053,-15.487804878,-2047,124.8170731707,-17,0.0739130435,-109,-0.4739130435,123,-0.6
9212025,17363.28125,880,-0.5395462906,5616,3.4432863274,-6464,3.9632127529,252,49.2073170732,-807,-15.3658536585,-2247,137.012195122,-15,0.0652173913,-107,-0.4652173913,124,-0.6048780488
9212665,17382.8125,560,-0.3433476395,5600,3.4334763948,-5568,3.4138565297,235,33.9634146341,-557,-14.3292682927,-2360,143.9024390244,-11,0.047826087,-105,-0.4565217391,121,-0.5902439024
9213305,17402.34375,-224,0.1373390558,5168,3.1686082158,-5008,3.0705088903,235,33.9634146341,-557,-14.3292682927,-2360,143.9024390244,-7,0.0304347826,-105,-0.4565217391,121,-0.5902439024
9213945,17421.875,-1184,0.7259350092,5136,3.1489883507,-4864,2.9822194972,316,16.2804878049,-267,-19.2682926829,-2424,147.8048780488,-4,0.0173913043,-92,-0.4,120,-0.5853658537
9214585,17441.40625,-1680,1.0300429185,5328,3.2667075414,-4784,2.9331698345,248,-1.9512195122,32,-15.1219512195,-2542,155,0,0,-94,-0.4086956522,116,-0.5658536585
9215225,17460.9375,-1904,1.1673819742,5264,3.2274678112,-4880,2.9920294298,248,-1.9512195122,32,-15.1219512195,-2542,155,5,-0.0217391304,-89,-0.3869565217,115,-0.5609756098
9215865,17480.46875,-2112,1.2949110975,4624,2.8350705089,-5904,3.6198651134,297,-25,410,-18.1097560976,-2573,156.8902439024,8,-0.0347826087,-88,-0.3826086957,119,-0.5804878049
9216505,17500,-3296,2.0208461067,4144,2.5407725322,-6544,4.0122624157,297,-25,410,-18.1097560976,-2573,156.8902439024,9,-0.0391304348,-76,-0.3304347826,116,-0.5658536585
9217145,17519.53125,-4064,2.4917228694,3504,2.1483752299,-6704,4.1103617413,465,-40.3658536585,662,-28.3536585366,-2491,151.8902439024,13,-0.0565217391,-74,-0.3217391304,117,-0.5707317073
9217785,17539.0625,-4336,2.6584917229,2576,1.5793991416,-6176,3.7866339669,168,-52.012195122,853,-10.243902439,-2428,148.0487804878,14,-0.0608695652,-68,-0.2956521739,116,-0.5658536585
