Shimmer,Shimmer,Shimmer,Shimmer,Shimmer,Shimmer,Shimmer,Shimmer,Shimmer,Shimmer,Shimmer,Shimmer,Shimmer,Shimmer,Shimmer,Shimmer,Shimmer,Shimmer,Shimmer,Shimmer
Timestamp,Timestamp,Wide Range Accelerometer X,Wide Range Accelerometer X,Wide Range Accelerometer Y,Wide Range Accelerometer Y,Wide Range Accelerometer Z,Wide Range Accelerometer Z,Gyroscope X,Gyroscope X,Gyroscope Y,Gyroscope Y,Gyroscope Z,Gyroscope Z,Magnetometer X,Magnetometer X,Magnetometer Y,Magnetometer Y,Magnetometer Z,Magnetometer Z
RAW,CAL,RAW,CAL,RAW,CAL,RAW,CAL,RAW,CAL,RAW,CAL,RAW,CAL,RAW,CAL,RAW,CAL,RAW,CAL
no units,mSecs,no units,m/(sec^2),no units,m/(sec^2),no units,m/(sec^2),no units,deg/sec,no units,deg/sec,no units,deg/sec,no units,local,no units,local,no units,local
5164665,7734.375,-4016,2.4622930717,2448,1.5009196812,-15424,9.4567749847,33,2.5609756098,-42,-2.012195122,-38,2.3170731707,4,-0.0173913043,-61,-0.2652173913,130,-0.6341463415
5165305,7753.90625,-4032,2.4721030043,2448,1.5009196812,-15440,9.4665849172,28,2.9268292683,-48,-1.7073170732,-45,2.743902439,7,-0.0304347826,-63,-0.2739130435,130,-0.6341463415
5165945,7773.4375,-4176,2.5603923973,2448,1.5009196812,-15360,9.4175352544,28,2.9268292683,-48,-1.7073170732,-45,2.743902439,5,-0.0217391304,-58,-0.252173913,130,-0.6341463415
5166585,7792.96875,-4160,2.5505824647,2432,1.4911097486,-15376,9.427345187,-1,3.3536585366,-55,0.0609756098,-37,2.256097561,4,-0.0173913043,-57,-0.247826087,130,-0.6341463415
5167225,7812.5,-4208,2.5800122624,2512,1.5401594114,-15264,9.3586756591,-1,3.3536585366,-55,0.0609756098,-37,2.256097561,6,-0.0260869565,-64,-0.2782608696,129,-0.6292682927
5167865,7832.03125,-4144,2.5407725322,2496,1.5303494788,-15264,9.3586756591,4,2.4390243902,-40,-0.243902439,-20,1.2195121951,5,-0.0217391304,-61,-0.2652173913,128,-0.6243902439
5168505,7851.5625,-4144,2.5407725322,2464,1.5107296137,-15280,9.3684855917,-2,1.6463414634,-27,0.1219512195,-7,0.4268292683,4,-0.0173913043,-61,-0.2652173913,129,-0.6292682927
5169145,7871.09375,-4048,2.4819129368,2416,1.4812998161,-15232,9.339055794,-2,1.6463414634,-27,0.1219512195,-7,0.4268292683,5,-0.0217391304,-61,-0.2652173913,129,-0.6292682927
5169785,7890.625,-4096,2.5113427345,2448,1.5009196812,-15248,9.3488657265,31,1.5853658537,-26,-1.8902439024,-3,0.1829268293,4,-0.0173913043,-55,-0.2391304348,128,-0.6243902439
5170425,7910.15625,-4112,2.5211526671,2416,1.4812998161,-15152,9.2900061312,-1,1.7682926829,-29,0.0609756098,-20,1.2195121951,5,-0.0217391304,-61,-0.2652173913,128,-0.6243902439
5171065,7929.6875,-4064,2.4917228694,2352,1.4420600858,-15168,9.2998160638,-1,1.7682926829,-29,0.0609756098,-20,1.2195121951,3,-0.0130434783,-58,-0.252173913,129,-0.6292682927
5171705,7949.21875,-3968,2.4328632741,2464,1.5107296137,-15200,9.3194359289,-43,1.8902439024,-31,2.6219512195,-27,1.6463414634,6,-0.0260869565,-60,-0.2608695652,129,-0.6292682927
5172345,7968.75,-3824,2.3445738811,2384,1.461679951,-15248,9.3488657265,-43,1.8902439024,-31,2.6219512195,-27,1.6463414634,6,-0.0260869565,-61,-0.2652173913,131,-0.6390243902
5172985,7988.28125,-3904,2.3936235438,2528,1.549969344,-15296,9.3782955242,11,0.6707317073,-11,-0.6707317073,-8,0.487804878,5,-0.0217391304,-62,-0.2695652174,130,-0.6341463415
5173625,8007.8125,-4000,2.4524831392,2464,1.5107296137,-15248,9.3488657265,10,0.487804878,-8,-0.6097560976,-6,0.3658536585,6,-0.0260869565,-59,-0.2565217391,128,-0.6243902439
5174265,8027.34375,-4080,2.501532802,2448,1.5009196812,-15264,9.3586756591,10,0.487804878,-8,-0.6097560976,-6,0.3658536585,6,-0.0260869565,-60,-0.2608695652,128,-0.6243902439
5174905,8046.875,-4064,2.4917228694,2448,1.5009196812,-15280,9.3684855917,-30,0.4268292683,-7,1.8292682927,-21,1.2804878049,2,-0.0086956522,-59,-0.2565217391,131,-0.6390243902
5175545,8066.40625,-3888,2.3838136113,2448,1.5009196812,-15312,9.3881054568,-30,0.4268292683,-7,1.8292682927,-21,1.2804878049,3,-0.0130434783,-59,-0.2565217391,128,-0.6243902439
5176185,8085.9375,-3808,2.3347639485,2432,1.4911097486,-15328,9.3979153893,-51,0.9146341463,-15,3.1097560976,-39,2.3780487805,4,-0.0173913043,-60,-0.2608695652,130,-0.6341463415
5176825,8105.46875,-3888,2.3838136113,2320,1.4224402207,-15392,9.4371551196,12,0.0609756098,-1,-0.7317073171,-32,1.9512195122,7,-0.0304347826,-62,-0.2695652174,130,-0.6341463415
5177465,8125,-4048,2.4819129368,2352,1.4420600858,-15408,9.4469650521,12,0.0609756098,-1,-0.7317073171,-32,1.9512195122,2,-0.0086956522,-62,-0.2695652174,130,-0.6341463415
5178105,8144.53125,-4112,2.5211526671,2432,1.4911097486,-15344,9.4077253219,-5,0.4268292683,-7,0.3048780488,-23,1.4024390244,3,-0.0130434783,-59,-0.2565217391,130,-0.6341463415
5178745,8164.0625,-3952,2.4230533415,2352,1.4420600858,-15472,9.4862047823,-5,0.4268292683,-7,0.3048780488,-23,1.4024390244,6,-0.0260869565,-62,-0.2695652174,131,-0.6390243902
5179385,8183.59375,-3872,2.3740036787,2368,1.4518700184,-15456,9.4763948498,-51,1.2804878049,-21,3.1097560976,-48,2.9268292683,4,-0.0173913043,-61,-0.2652173913,131,-0.6390243902
5180025,8203.125,-3872,2.3740036787,2320,1.4224402207,-15424,9.4567749847,-25,1.2804878049,-21,1.5243902439,-49,2.987804878,4,-0.0173913043,-57,-0.247826087,130,-0.6341463415
5180665,8222.65625,-3872,2.3740036787,2352,1.4420600858,-15424,9.4567749847,-25,1.2804878049,-21,1.5243902439,-49,2.987804878,3,-0.0130434783,-57,-0.247826087,131,-0.6390243902
5181305,8242.1875,-3824,2.3445738811,2352,1.4420600858,-15360,9.4175352544,-21,1.0365853659,-17,1.2804878049,-48,2.9268292683,5,-0.0217391304,-61,-0.2652173913,131,-0.6390243902
5181945,8261.71875,-3904,2.3936235438,2288,1.4028203556,-15232,9.339055794,-17,0.4268292683,-7,1.0365853659,-61,3.7195121951,5,-0.0217391304,-58,-0.252173913,130,-0.6341463415
5182585,8281.25,-3984,2.4426732066,2224,1.3635806254,-15216,9.3292458614,-17,0.4268292683,-7,1.0365853659,-61,3.7195121951,4,-0.0173913043,-58,-0.252173913,131,-0.6390243902
5183225,8300.78125,-3920,2.4034334764,2208,1.3537706928,-15168,9.2998160638,-46,0.1219512195,-2,2.8048780488,-67,4.0853658537,4,-0.0173913043,-59,-0.2565217391,130,-0.6341463415
5183865,8320.3125,-3872,2.3740036787,2208,1.3537706928,-15232,9.339055794,-46,0.1219512195,-2,2.8048780488,-67,4.0853658537,6,-0.0260869565,-58,-0.252173913,131,-0.6390243902
5184505,8339.84375,-3856,2.3641937462,2176,1.3341508277,-15232,9.339055794,-18,-0.8536585366,14,1.0975609756,-38,2.3170731707,4,-0.0173913043,-58,-0.252173913,130,-0.6341463415
5185145,8359.375,-3824,2.3445738811,2128,1.30472103,-15232,9.339055794,-20,-2.3170731707,38,1.2195121951,-31,1.8902439024,5,-0.0217391304,-57,-0.247826087,130,-0.6341463415
5185785,8378.90625,-3920,2.4034334764,2016,1.2360515021,-15216,9.3292458614,-20,-2.3170731707,38,1.2195121951,-31,1.8902439024,6,-0.0260869565,-60,-0.2608695652,131,-0.6390243902
5186425,8398.4375,-4032,2.4721030043,2176,1.3341508277,-15216,9.3292458614,-41,-1.3414634146,22,2.5,-49,2.987804878,4,-0.0173913043,-58,-0.252173913,131,-0.6390243902
5187065,8417.96875,-4048,2.4819129368,2208,1.3537706928,-15328,9.3979153893,-41,-1.3414634146,22,2.5,-49,2.987804878,3,-0.0130434783,-55,-0.2391304348,129,-0.6292682927
5187705,8437.5,-3840,2.3543838136,2064,1.2654812998,-15376,9.427345187,-84,-2.0731707317,34,5.1219512195,-58,3.5365853659,0,0,-55,-0.2391304348,131,-0.6390243902
5188345,8457.03125,-3632,2.2268546904,1904,1.1673819742,-15424,9.4567749847,-43,-2.3780487805,39,2.6219512195,-46,2.8048780488,3,-0.0130434783,-55,-0.2391304348,131,-0.6390243902
5188985,8476.5625,-3776,2.3151440834,1840,1.128142244,-15424,9.4567749847,-43,-2.3780487805,39,2.6219512195,-46,2.8048780488,2,-0.0086956522,-56,-0.2434782609,131,-0.6390243902
5189625,8496.09375,-3952,2.4230533415,1792,1.0987124464,-15504,9.5058246475,0,-2.8658536585,47,0,-31,1.8902439024,5,-0.0217391304,-57,-0.247826087,131,-0.6390243902
5190265,8515.625,-3808,2.3347639485,1616,0.9908031882,-15728,9.6431637032,-9,-1.2804878049,21,0.5487804878,-43,2.6219512195,5,-0.0217391304,-57,-0.247826087,131,-0.6390243902
5190905,8535.15625,-3824,2.3445738811,1648,1.0104230533,-15696,9.6235438381,-9,-1.2804878049,21,0.5487804878,-43,2.6219512195,3,-0.0130434783,-58,-0.252173913,131,-0.6390243902
5191545,8554.6875,-3872,2.3740036787,1760,1.0790925812,-15824,9.7020232986,-12,-0.5487804878,9,0.7317073171,-39,2.3780487805,4,-0.0173913043,-59,-0.2565217391,132,-0.643902439
5192185,8574.21875,-3968,2.4328632741,1632,1.0006131208,-15904,9.7510729614,-12,-0.5487804878,9,0.7317073171,-39,2.3780487805,3,-0.0130434783,-53,-0.2304347826,131,-0.6390243902
5192825,8593.75,-3824,2.3445738811,1712,1.0496627836,-15968,9.7903126916,-45,1.4634146341,-24,2.743902439,-34,2.0731707317,1,-0.0043478261,-57,-0.247826087,131,-0.6390243902
5193465,8613.28125,-3696,2.2660944206,1696,1.039852851,-15872,9.7314530963,-25,2.6829268293,-44,1.5243902439,-36,2.1951219512,4,-0.0173913043,-54,-0.2347826087,133,-0.6487804878
5194105,8632.8125,-3744,2.2955242183,1536,0.9417535254,-15888,9.7412630288,-25,2.6829268293,-44,1.5243902439,-36,2.1951219512,4,-0.0173913043,-53,-0.2304347826,133,-0.6487804878
5194745,8652.34375,-3808,2.3347639485,1472,0.9025137952,-15920,9.7608828939,5,3.8414634146,-63,-0.3048780488,-43,2.6219512195,5,-0.0217391304,-59,-0.2565217391,132,-0.643902439
5195385,8671.875,-3840,2.3543838136,1424,0.8730839975,-15856,9.7216431637,5,3.8414634146,-63,-0.3048780488,-43,2.6219512195,6,-0.0260869565,-53,-0.2304347826,131,-0.6390243902
5196025,8691.40625,-3792,2.3249540159,1376,0.8436541999,-15792,9.6824034335,-17,4.4512195122,-73,1.0365853659,-35,2.1341463415,3,-0.0130434783,-54,-0.2347826087,132,-0.643902439
5196665,8710.9375,-3824,2.3445738811,1520,0.9319435929,-15680,9.6137339056,-15,5,-82,0.9146341463,-32,1.9512195122,3,-0.0130434783,-53,-0.2304347826,132,-0.643902439
5197305,8730.46875,-3840,2.3543838136,1616,0.9908031882,-15728,9.6431637032,-15,5,-82,0.9146341463,-32,1.9512195122,5,-0.0217391304,-57,-0.247826087,132,-0.643902439
5197945,8750,-3824,2.3445738811,1584,0.9711833231,-15584,9.5548743102,-23,5.4268292683,-89,1.4024390244,-40,2.4390243902,3,-0.0130434783,-57,-0.247826087,133,-0.6487804878
5198585,8769.53125,-3712,2.2759043532,1648,1.0104230533,-15536,9.5254445126,18,5.7317073171,-94,-1.0975609756,-36,2.1951219512,5,-0.0217391304,-56,-0.2434782609,130,-0.6341463415
5199225,8789.0625,-3904,2.3936235438,1600,0.9809932557,-15424,9.4567749847,18,5.7317073171,-94,-1.0975609756,-36,2.1951219512,4,-0.0173913043,-56,-0.2434782609,131,-0.6390243902
5199865,8808.59375,-3920,2.4034334764,1600,0.9809932557,-15440,9.4665849172,-3,5.487804878,-90,0.1829268293,-20,1.2195121951,6,-0.0260869565,-57,-0.247826087,134,-0.6536585366
5200505,8828.125,-3904,2.3936235438,1664,1.0202329859,-15296,9.3782955242,-3,5.487804878,-90,0.1829268293,-20,1.2195121951,5,-0.0217391304,-52,-0.2260869565,129,-0.6292682927
5201145,8847.65625,-3920,2.4034334764,1744,1.0692826487,-15312,9.3881054568,-12,4.3292682927,-71,0.7317073171,-2,0.1219512195,5,-0.0217391304,-55,-0.2391304348,131,-0.6390243902
5201785,8867.1875,-3936,2.413243409,1728,1.0594727161,-15168,9.2998160638,-9,3.9024390244,-64,0.5487804878,11,-0.6707317073,5,-0.0217391304,-55,-0.2391304348,132,-0.643902439
5202425,8886.71875,-3904,2.3936235438,1728,1.0594727161,-15168,9.2998160638,-9,3.9024390244,-64,0.5487804878,11,-0.6707317073,3,-0.0130434783,-52,-0.2260869565,130,-0.6341463415
5203065,8906.25,-3856,2.3641937462,1696,1.039852851,-15248,9.3488657265,-34,3.3536585366,-55,2.0731707317,13,-0.7926829268,3,-0.0130434783,-56,-0.2434782609,131,-0.6390243902
5203705,8925.78125,-3728,2.2857142857,1776,1.0889025138,-15248,9.3488657265,-34,3.3536585366,-55,2.0731707317,13,-0.7926829268,6,-0.0260869565,-55,-0.2391304348,132,-0.643902439
5204345,8945.3125,-3776,2.3151440834,1904,1.1673819742,-15264,9.3586756591,9,2.6219512195,-43,-0.5487804878,19,-1.1585365854,5,-0.0217391304,-56,-0.2434782609,133,-0.6487804878
5204985,8964.84375,-3792,2.3249540159,1792,1.0987124464,-15456,9.4763948498,-6,2.256097561,-37,0.3658536585,21,-1.2804878049,4,-0.0173913043,-58,-0.252173913,133,-0.6487804878
5205625,8984.375,-3872,2.3740036787,1744,1.0692826487,-15488,9.4960147149,-6,2.256097561,-37,0.3658536585,21,-1.2804878049,4,-0.0173913043,-58,-0.252173913,132,-0.643902439
5206265,9003.90625,-3856,2.3641937462,1824,1.1183323115,-15424,9.4567749847,-25,2.4390243902,-40,1.5243902439,25,-1.5243902439,5,-0.0217391304,-57,-0.247826087,132,-0.643902439
5206905,9023.4375,-3776,2.3151440834,1808,1.1085223789,-15568,9.5450643777,-25,2.4390243902,-40,1.5243902439,25,-1.5243902439,5,-0.0217391304,-58,-0.252173913,133,-0.6487804878
5207545,9042.96875,-3664,2.2464745555,1696,1.039852851,-15600,9.5646842428,-19,2.8048780488,-46,1.1585365854,25,-1.5243902439,4,-0.0173913043,-55,-0.2391304348,133,-0.6487804878
5208185,9062.5,-3648,2.2366646229,1632,1.0006131208,-15520,9.51563458,5,2.256097561,-37,-0.3048780488,33,-2.012195122,1,-0.0043478261,-56,-0.2434782609,132,-0.643902439
5208825,9082.03125,-3760,2.3053341508,1616,0.9908031882,-15600,9.5646842428,5,2.256097561,-37,-0.3048780488,33,-2.012195122,4,-0.0173913043,-53,-0.2304347826,132,-0.643902439
5209465,9101.5625,-3760,2.3053341508,1648,1.0104230533,-15616,9.5744941754,3,2.8048780488,-46,-0.1829268293,27,-1.6463414634,5,-0.0217391304,-58,-0.252173913,132,-0.643902439
5210105,9121.09375,-3808,2.3347639485,1664,1.0202329859,-15568,9.5450643777,-60,3.2926829268,-54,3.6585365854,14,-0.8536585366,3,-0.0130434783,-55,-0.2391304348,133,-0.6487804878
5210745,9140.625,-3616,2.2170447578,1728,1.0594727161,-15568,9.5450643777,-60,3.2926829268,-54,3.6585365854,14,-0.8536585366,4,-0.0173913043,-55,-0.2391304348,134,-0.6536585366
5211385,9160.15625,-3472,2.1287553648,1712,1.0496627836,-15584,9.5548743102,-16,3.3536585366,-55,0.9756097561,18,-1.0975609756,4,-0.0173913043,-60,-0.2608695652,133,-0.6487804878
5212025,9179.6875,-3600,2.2072348253,1696,1.039852851,-15440,9.4665849172,-16,3.3536585366,-55,0.9756097561,18,-1.0975609756,3,-0.0130434783,-59,-0.2565217391,135,-0.6585365854
5212665,9199.21875,-3728,2.2857142857,1824,1.1183323115,-15440,9.4665849172,7,3.3536585366,-55,-0.4268292683,16,-0.9756097561,3,-0.0130434783,-56,-0.2434782609,133,-0.6487804878
5213305,9218.75,-3744,2.2955242183,1840,1.128142244,-15360,9.4175352544,-20,3.2926829268,-54,1.2195121951,9,-0.5487804878,1,-0.0043478261,-54,-0.2347826087,131,-0.6390243902
5213945,9238.28125,-3600,2.2072348253,1776,1.0889025138,-15440,9.4665849172,-20,3.2926829268,-54,1.2195121951,9,-0.5487804878,5,-0.0217391304,-59,-0.2565217391,134,-0.6536585366
5214585,9257.8125,-3648,2.2366646229,1792,1.0987124464,-15440,9.4665849172,5,2.9268292683,-48,-0.3048780488,24,-1.4634146341,5,-0.0217391304,-59,-0.2565217391,134,-0.6536585366
5215225,9277.34375,-3728,2.2857142857,1808,1.1085223789,-15456,9.4763948498,5,2.9268292683,-48,-0.3048780488,24,-1.4634146341,4,-0.0173913043,-55,-0.2391304348,132,-0.643902439
5215865,9296.875,-3696,2.2660944206,1888,1.1575720417,-15312,9.3881054568,-14,2.6829268293,-44,0.8536585366,23,-1.4024390244,3,-0.0130434783,-56,-0.2434782609,132,-0.643902439
5216505,9316.40625,-3632,2.2268546904,1840,1.128142244,-15344,9.4077253219,-23,2.012195122,-33,1.4024390244,34,-2.0731707317,2,-0.0086956522,-57,-0.247826087,134,-0.6536585366
5217145,9335.9375,-3568,2.1876149601,1856,1.1379521766,-15424,9.4567749847,-23,2.012195122,-33,1.4024390244,34,-2.0731707317,4,-0.0173913043,-56,-0.2434782609,133,-0.6487804878
5217785,9355.46875,-3568,2.1876149601,1856,1.1379521766,-15424,9.4567749847,-5,1.8902439024,-31,0.3048780488,36,-2.1951219512,5,-0.0217391304,-56,-0.2434782609,133,-0.6487804878
5218425,9375,-3568,2.1876149601,1872,1.1477621091,-15552,9.5352544451,6,1.6463414634,-27,-0.3658536585,32,-1.9512195122,2,-0.0086956522,-60,-0.2608695652,133,-0.6487804878
5219065,9394.53125,-3584,2.1974248927,1888,1.1575720417,-15488,9.4960147149,6,1.6463414634,-27,-0.3658536585,32,-1.9512195122,2,-0.0086956522,-59,-0.2565217391,134,-0.6536585366
5219705,9414.0625,-3472,2.1287553648,1808,1.1085223789,-15488,9.4960147149,0,1.7073170732,-28,0,25,-1.5243902439,2,-0.0086956522,-58,-0.252173913,133,-0.6487804878
5220345,9433.59375,-3584,2.1974248927,1872,1.1477621091,-15584,9.5548743102,0,1.7073170732,-28,0,25,-1.5243902439,5,-0.0217391304,-58,-0.252173913,133,-0.6487804878
5220985,9453.125,-3552,2.1778050276,1904,1.1673819742,-15696,9.6235438381,-17,2.0731707317,-34,1.0365853659,14,-0.8536585366,3,-0.0130434783,-58,-0.252173913,132,-0.643902439
5221625,9472.65625,-3504,2.1483752299,1872,1.1477621091,-15664,9.603923973,-2,1.9512195122,-32,0.1219512195,27,-1.6463414634,2,-0.0086956522,-56,-0.2434782609,131,-0.6390243902
5222265,9492.1875,-3536,2.167995095,1840,1.128142244,-15696,9.6235438381,-2,1.9512195122,-32,0.1219512195,27,-1.6463414634,4,-0.0173913043,-59,-0.2565217391,133,-0.6487804878
5222905,9511.71875,-3520,2.1581851625,1760,1.0790925812,-15792,9.6824034335,-1,2.5609756098,-42,0.0609756098,20,-1.2195121951,3,-0.0130434783,-54,-0.2347826087,131,-0.6390243902
5223545,9531.25,-3504,2.1483752299,1792,1.0987124464,-15696,9.6235438381,-1,2.5609756098,-42,0.0609756098,20,-1.2195121951,0,0,-55,-0.2391304348,133,-0.6487804878
5224185,9550.78125,-3552,2.1778050276,1808,1.1085223789,-15696,9.6235438381,5,2.6829268293,-44,-0.3048780488,18,-1.0975609756,2,-0.0086956522,-55,-0.2391304348,134,-0.6536585366
5224825,9570.3125,-3632,2.2268546904,1808,1.1085223789,-15648,9.5941140405,9,3.4146341463,-56,-0.5487804878,6,-0.3658536585,4,-0.0173913043,-59,-0.2565217391,133,-0.6487804878
5225465,9589.84375,-3552,2.1778050276,1840,1.128142244,-15552,9.5352544451,9,3.4146341463,-56,-0.5487804878,6,-0.3658536585,3,-0.0130434783,-61,-0.2652173913,134,-0.6536585366
5226105,9609.375,-3520,2.1581851625,1824,1.1183323115,-15520,9.51563458,-6,4.0243902439,-66,0.3658536585,1,-0.0609756098,3,-0.0130434783,-56,-0.2434782609,133,-0.6487804878
5226745,9628.90625,-3440,2.1091354997,1888,1.1575720417,-15584,9.5548743102,16,3.9024390244,-64,-0.9756097561,-5,0.3048780488,3,-0.0130434783,-57,-0.247826087,133,-0.6487804878
5227385,9648.4375,-3472,2.1287553648,1936,1.1870018394,-15632,9.5843041079,16,3.9024390244,-64,-0.9756097561,-5,0.3048780488,1,-0.0043478261,-52,-0.2260869565,132,-0.643902439
5228025,9667.96875,-3536,2.167995095,1808,1.1085223789,-15584,9.5548743102,23,3.7195121951,-61,-1.4024390244,8,-0.487804878,2,-0.0086956522,-53,-0.2304347826,132,-0.643902439
5228665,9687.5,-3664,2.2464745555,1648,1.0104230533,-15520,9.51563458,23,3.7195121951,-61,-1.4024390244,8,-0.487804878,4,-0.0173913043,-56,-0.2434782609,132,-0.643902439
5229305,9707.03125,-3680,2.256284488,1808,1.1085223789,-15504,9.5058246475,19,3.4756097561,-57,-1.1585365854,7,-0.4268292683,4,-0.0173913043,-56,-0.2434782609,132,-0.643902439
5229945,9726.5625,-3552,2.1778050276,1760,1.0790925812,-15520,9.51563458,-11,3.7195121951,-61,0.6707317073,-9,0.5487804878,2,-0.0086956522,-58,-0.252173913,132,-0.643902439
5230585,9746.09375,-3504,2.1483752299,1792,1.0987124464,-15552,9.5352544451,-11,3.7195121951,-61,0.6707317073,-9,0.5487804878,4,-0.0173913043,-59,-0.2565217391,134,-0.6536585366
5231225,9765.625,-3600,2.2072348253,1824,1.1183323115,-15520,9.51563458,26,4.0853658537,-67,-1.5853658537,-2,0.1219512195,5,-0.0217391304,-56,-0.2434782609,132,-0.643902439
5231865,9785.15625,-3744,2.2955242183,1872,1.1477621091,-15552,9.5352544451,26,4.0853658537,-67,-1.5853658537,-2,0.1219512195,3,-0.0130434783,-53,-0.2304347826,132,-0.643902439
5232505,9804.6875,-8160,5.0030656039,-1472,-0.9025137952,-6992,4.2869405273,7,4.0243902439,-66,-0.4268292683,1,-0.0609756098,1,-0.0043478261,-58,-0.252173913,133,-0.6487804878
5233145,9824.21875,-4640,2.8448804414,6352,3.894543225,-12880,7.8969957082,976,-30.1829268293,495,-59.512195122,-376,22.9268292683,3,-0.0130434783,-56,-0.2434782609,130,-0.6341463415
5233785,9843.75,-7344,4.5027590435,4992,3.0606989577,-14976,9.1820968731,976,-30.1829268293,495,-59.512195122,-376,22.9268292683,5,-0.0217391304,-57,-0.247826087,129,-0.6292682927
5234425,9863.28125,-8992,5.5131820969,2896,1.7755977928,-15936,9.7706928265,-48,2.4390243902,-40,2.9268292683,187,-11.4024390244,6,-0.0260869565,-53,-0.2304347826,128,-0.6243902439
5235065,9882.8125,-6448,3.9534028204,2288,1.4028203556,-15728,9.6431637032,-1663,13.5365853659,-222,101.4024390244,33,-2.012195122,5,-0.0217391304,-53,-0.2304347826,131,-0.6390243902
5235705,9902.34375,-464,0.2844880441,3152,1.9325567137,-15376,9.427345187,-1663,13.5365853659,-222,101.4024390244,33,-2.012195122,1,-0.0043478261,-55,-0.2391304348,134,-0.6536585366
5236345,9921.875,-304,0.1863887186,256,0.1569589209,-15792,9.6824034335,218,-7.6829268293,126,-13.2926829268,279,-17.012195122,1,-0.0043478261,-54,-0.2347826087,133,-0.6487804878
5236985,9941.40625,-3024,1.8540772532,432,0.264868179,-16368,10.0355610055,218,-7.6829268293,126,-13.2926829268,279,-17.012195122,2,-0.0086956522,-55,-0.2391304348,133,-0.6487804878
5237625,9960.9375,-4480,2.7467811159,1840,1.128142244,-16480,10.1042305334,554,1.7073170732,-28,-33.7804878049,15,-0.9146341463,3,-0.0130434783,-55,-0.2391304348,133,-0.6487804878
5238265,9980.46875,-4288,2.6290619252,1744,1.0692826487,-16032,9.8295524218,21,4.512195122,-74,-1.2804878049,23,-1.4024390244,2,-0.0086956522,-53,-0.2304347826,132,-0.643902439
5238905,10000,-3776,2.3151440834,1552,0.951563458,-15728,9.6431637032,21,4.512195122,-74,-1.2804878049,23,-1.4024390244,2,-0.0086956522,-60,-0.2608695652,133,-0.6487804878
5239545,10019.53125,-3632,2.2268546904,1728,1.0594727161,-15728,9.6431637032,-18,6.3414634146,-104,1.0975609756,-1,0.0609756098,3,-0.0130434783,-56,-0.2434782609,133,-0.6487804878
5240185,10039.0625,-3568,2.1876149601,1680,1.0300429185,-15664,9.603923973,-18,6.3414634146,-104,1.0975609756,-1,0.0609756098,1,-0.0043478261,-56,-0.2434782609,132,-0.643902439
5240825,10058.59375,-3552,2.1778050276,1696,1.039852851,-15552,9.5352544451,-87,6.0975609756,-100,5.3048780488,-21,1.2804878049,1,-0.0043478261,-54,-0.2347826087,132,-0.643902439
5241465,10078.125,-3392,2.079705702,1856,1.1379521766,-15360,9.4175352544,-73,6.7682926829,-111,4.4512195122,-43,2.6219512195,1,-0.0043478261,-54,-0.2347826087,132,-0.643902439
5242105,10097.65625,-3344,2.0502759044,1936,1.1870018394,-15392,9.4371551196,-73,6.7682926829,-111,4.4512195122,-43,2.6219512195,2,-0.0086956522,-54,-0.2347826087,130,-0.6341463415
5242745,10117.1875,-3392,2.079705702,1920,1.1771919068,-15328,9.3979153893,27,6.5243902439,-107,-1.6463414634,-28,1.7073170732,1,-0.0043478261,-55,-0.2391304348,132,-0.643902439
5243385,10136.71875,-3440,2.1091354997,1824,1.1183323115,-15200,9.3194359289,27,6.5243902439,-107,-1.6463414634,-28,1.7073170732,3,-0.0130434783,-56,-0.2434782609,132,-0.643902439
5244025,10156.25,-3616,2.2170447578,1808,1.1085223789,-15216,9.3292458614,52,4.6951219512,-77,-3.1707317073,-40,2.4390243902,1,-0.0043478261,-59,-0.2565217391,134,-0.6536585366
5244665,10175.78125,-3888,2.3838136113,1968,1.2066217045,-15312,9.3881054568,56,4.3292682927,-71,-3.4146341463,-34,2.0731707317,3,-0.0130434783,-59,-0.2565217391,133,-0.6487804878
5245305,10195.3125,-3984,2.4426732066,1968,1.2066217045,-15376,9.427345187,56,4.3292682927,-71,-3.4146341463,-34,2.0731707317,4,-0.0173913043,-58,-0.252173913,132,-0.643902439
5245945,10214.84375,-3760,2.3053341508,1904,1.1673819742,-15424,9.4567749847,-46,4.4512195122,-73,2.8048780488,-29,1.7682926829,0,0,-54,-0.2347826087,131,-0.6390243902
5246585,10234.375,5376,-3.2961373391,-11152,-6.837522992,-24096,14.7737584304,-1008,-129.512195122,2124,61.4634146341,762,-46.4634146341,2,-0.0086956522,-57,-0.247826087,130,-0.6341463415
5247225,10253.90625,-992,0.6082158185,2880,1.7657878602,-15504,9.5058246475,-1008,-129.512195122,2124,61.4634146341,762,-46.4634146341,4,-0.0173913043,-56,-0.2434782609,131,-0.6390243902
5247865,10273.4375,-3968,2.4328632741,3936,2.413243409,-14704,9.0153280196,868,-6.1585365854,101,-52.9268292683,100,-6.0975609756,2,-0.0086956522,-53,-0.2304347826,130,-0.6341463415
5248505,10292.96875,-6288,3.8553034948,2880,1.7657878602,-15440,9.4665849172,868,-6.1585365854,101,-52.9268292683,100,-6.0975609756,5,-0.0217391304,-56,-0.2434782609,129,-0.6292682927
5249145,10312.5,-6624,4.0613120785,2512,1.5401594114,-15536,9.5254445126,29,-6.2804878049,103,-1.7682926829,118,-7.1951219512,5,-0.0217391304,-56,-0.2434782609,129,-0.6292682927
5249785,10332.03125,-6144,3.7670141018,1936,1.1870018394,-15824,9.7020232986,-819,6.2195121951,-102,49.9390243902,35,-2.1341463415,3,-0.0130434783,-59,-0.2565217391,129,-0.6292682927
5250425,10351.5625,-4080,2.501532802,1056,0.6474555487,-15680,9.6137339056,-819,6.2195121951,-102,49.9390243902,35,-2.1341463415,5,-0.0217391304,-59,-0.2565217391,132,-0.643902439
5251065,10371.09375,-2768,1.6971183323,768,0.4708767627,-15680,9.6137339056,-327,4.512195122,-74,19.9390243902,-38,2.3170731707,3,-0.0130434783,-54,-0.2347826087,133,-0.6487804878
5251705,10390.625,-2752,1.6873083998,1648,1.0104230533,-16336,10.0159411404,-327,4.512195122,-74,19.9390243902,-38,2.3170731707,3,-0.0130434783,-54,-0.2347826087,132,-0.643902439
5252345,10410.15625,-3584,2.1974248927,1632,1.0006131208,-16624,10.1925199264,167,1.2195121951,-20,-10.1829268293,25,-1.5243902439,2,-0.0086956522,-51,-0.2217391304,131,-0.6390243902
5252985,10429.6875,-3904,2.3936235438,1440,0.8828939301,-16368,10.0355610055,103,4.9390243902,-81,-6.2804878049,5,-0.3048780488,4,-0.0173913043,-56,-0.2434782609,131,-0.6390243902
5253625,10449.21875,-4032,2.4721030043,1520,0.9319435929,-16096,9.8687921521,103,4.9390243902,-81,-6.2804878049,5,-0.3048780488,4,-0.0173913043,-56,-0.2434782609,131,-0.6390243902
5254265,10468.75,-4096,2.5113427345,1504,0.9221336603,-15968,9.7903126916,-3,5.8536585366,-96,0.1829268293,-15,0.9146341463,2,-0.0086956522,-58,-0.252173913,131,-0.6390243902
5254905,10488.28125,-3888,2.3838136113,1424,0.8730839975,-15808,9.692213366,-102,7.3170731707,-120,6.2195121951,-33,2.012195122,2,-0.0086956522,-57,-0.247826087,130,-0.6341463415
5255545,10507.8125,-3760,2.3053341508,1536,0.9417535254,-15680,9.6137339056,-102,7.3170731707,-120,6.2195121951,-33,2.012195122,5,-0.0217391304,-59,-0.2565217391,133,-0.6487804878
5256185,10527.34375,-3584,2.1974248927,1664,1.0202329859,-15584,9.5548743102,-67,7.1951219512,-118,4.0853658537,-29,1.7682926829,4,-0.0173913043,-56,-0.2434782609,131,-0.6390243902
5256825,10546.875,-3456,2.1189454323,1696,1.039852851,-15440,9.4665849172,-67,7.1951219512,-118,4.0853658537,-29,1.7682926829,4,-0.0173913043,-55,-0.2391304348,132,-0.643902439
5257465,10566.40625,-3536,2.167995095,1696,1.039852851,-15360,9.4175352544,18,6.5243902439,-107,-1.0975609756,-13,0.7926829268,5,-0.0217391304,-59,-0.2565217391,133,-0.6487804878
5258105,10585.9375,-3568,2.1876149601,1648,1.0104230533,-15328,9.3979153893,49,5.9146341463,-97,-2.987804878,-25,1.5243902439,2,-0.0086956522,-56,-0.2434782609,131,-0.6390243902
5258745,10605.46875,-3696,2.2660944206,1712,1.0496627836,-15328,9.3979153893,49,5.9146341463,-97,-2.987804878,-25,1.5243902439,4,-0.0173913043,-56,-0.2434782609,130,-0.6341463415
5259385,10625,-3808,2.3347639485,1760,1.0790925812,-15360,9.4175352544,26,5.6097560976,-92,-1.5853658537,-25,1.5243902439,5,-0.0217391304,-57,-0.247826087,132,-0.643902439
5260025,10644.53125,9552,-5.8565297364,-6688,-4.1005518087,-24048,14.7443286327,26,5.6097560976,-92,-1.5853658537,-25,1.5243902439,1,-0.0043478261,-59,-0.2565217391,133,-0.6487804878
5260665,10664.0625,-1664,1.0202329859,4640,2.8448804414,-16192,9.9276517474,1093,1.4634146341,-24,-66.6463414634,-264,16.0975609756,5,-0.0217391304,-58,-0.252173913,132,-0.643902439
5261305,10683.59375,-5008,3.0705088903,3440,2.1091354997,-15184,9.3096259963,498,-4.756097561,78,-30.3658536585,103,-6.2804878049,3,-0.0130434783,-52,-0.2260869565,129,-0.6292682927
5261945,10703.125,-6416,3.9337829552,2704,1.6578786021,-15184,9.3096259963,498,-4.756097561,78,-30.3658536585,103,-6.2804878049,7,-0.0304347826,-58,-0.252173913,129,-0.6292682927
5262585,10722.65625,-5600,3.4334763948,2128,1.30472103,-15040,9.2213366033,-488,-0.1219512195,2,29.756097561,51,-3.1097560976,5,-0.0217391304,-59,-0.2565217391,130,-0.6341463415
5263225,10742.1875,-4608,2.8252605763,1520,0.9319435929,-15296,9.3782955242,-540,3.4146341463,-56,32.9268292683,51,-3.1097560976,5,-0.0217391304,-58,-0.252173913,132,-0.643902439
5263865,10761.71875,-3776,2.3151440834,1552,0.951563458,-15984,9.8001226242,-540,3.4146341463,-56,32.9268292683,51,-3.1097560976,6,-0.0260869565,-59,-0.2565217391,131,-0.6390243902
5264505,10781.25,-3232,1.9816063765,800,0.4904966278,-16192,9.9276517474,-179,4.9390243902,-81,10.9146341463,65,-3.9634146341,5,-0.0217391304,-60,-0.2608695652,132,-0.643902439
5265145,10800.78125,-3248,1.991416309,1232,0.7553648069,-16112,9.8786020846,-179,4.9390243902,-81,10.9146341463,65,-3.9634146341,3,-0.0130434783,-54,-0.2347826087,132,-0.643902439
5265785,10820.3125,-3584,2.1974248927,1696,1.039852851,-16096,9.8687921521,127,3.4146341463,-56,-7.743902439,19,-1.1585365854,3,-0.0130434783,-55,-0.2391304348,133,-0.6487804878
5266425,10839.84375,-4096,2.5113427345,1680,1.0300429185,-16048,9.8393623544,34,5.243902439,-86,-2.0731707317,20,-1.2195121951,5,-0.0217391304,-59,-0.2565217391,133,-0.6487804878
5267065,10859.375,-4096,2.5113427345,1600,0.9809932557,-15920,9.7608828939,34,5.243902439,-86,-2.0731707317,20,-1.2195121951,4,-0.0173913043,-61,-0.2652173913,132,-0.643902439
5267705,10878.90625,-3808,2.3347639485,1632,1.0006131208,-15744,9.6529736358,-93,6.0365853659,-99,5.6707317073,-4,0.243902439,3,-0.0130434783,-55,-0.2391304348,132,-0.643902439
5268345,10898.4375,-3552,2.1778050276,1584,0.9711833231,-15488,9.4960147149,-93,6.0365853659,-99,5.6707317073,-4,0.243902439,3,-0.0130434783,-57,-0.247826087,131,-0.6390243902
5268985,10917.96875,-3520,2.1581851625,1696,1.039852851,-15408,9.4469650521,-11,6.0365853659,-99,0.6707317073,11,-0.6707317073,5,-0.0217391304,-57,-0.247826087,132,-0.643902439
5269625,10937.5,-3680,2.256284488,1744,1.0692826487,-15312,9.3881054568,5,5.7926829268,-95,-0.3048780488,-9,0.5487804878,4,-0.0173913043,-60,-0.2608695652,133,-0.6487804878
5270265,10957.03125,-3664,2.2464745555,1808,1.1085223789,-15280,9.3684855917,5,5.7926829268,-95,-0.3048780488,-9,0.5487804878,3,-0.0130434783,-57,-0.247826087,131,-0.6390243902
5270905,10976.5625,-3680,2.256284488,1792,1.0987124464,-15232,9.339055794,10,5.5487804878,-91,-0.6097560976,-18,1.0975609756,4,-0.0173913043,-56,-0.2434782609,133,-0.6487804878
5271545,10996.09375,-3664,2.2464745555,1808,1.1085223789,-15280,9.3684855917,10,5.5487804878,-91,-0.6097560976,-18,1.0975609756,4,-0.0173913043,-54,-0.2347826087,131,-0.6390243902
5272185,11015.625,-3792,2.3249540159,1856,1.1379521766,-15184,9.3096259963,37,4.9390243902,-81,-2.256097561,-9,0.5487804878,3,-0.0130434783,-57,-0.247826087,132,-0.643902439
5272825,11035.15625,-3792,2.3249540159,1904,1.1673819742,-15296,9.3782955242,-19,4.3292682927,-71,1.1585365854,-8,0.487804878,5,-0.0217391304,-57,-0.247826087,131,-0.6390243902
5273465,11054.6875,-6752,4.1397915389,7776,4.7676272226,-2864,1.7559779277,-19,4.3292682927,-71,1.1585365854,-8,0.487804878,7,-0.0304347826,-55,-0.2391304348,129,-0.6292682927
5274105,11074.21875,-3760,2.3053341508,4080,2.501532802,-11040,6.7688534641,511,-51.5243902439,845,-31.1585365854,6,-0.3658536585,5,-0.0217391304,-59,-0.2565217391,130,-0.6341463415
5274745,11093.75,-6128,3.7572041692,3712,2.2759043532,-14160,8.6817903127,463,-11.5243902439,189,-28.2317073171,233,-14.2073170732,7,-0.0304347826,-58,-0.252173913,126,-0.6146341463
5275385,11113.28125,-7904,4.846106683,3024,1.8540772532,-15232,9.339055794,463,-11.5243902439,189,-28.2317073171,233,-14.2073170732,10,-0.0434782609,-57,-0.247826087,126,-0.6146341463
5276025,11132.8125,-7568,4.6400980993,2208,1.3537706928,-16096,9.8687921521,-915,1.7682926829,-29,55.7926829268,265,-16.1585365854,7,-0.0304347826,-58,-0.252173913,127,-0.6195121951
5276665,11152.34375,-5952,3.6492949111,704,0.4316370325,-16176,9.9178418148,-915,1.7682926829,-29,55.7926829268,265,-16.1585365854,6,-0.0260869565,-57,-0.247826087,131,-0.6390243902
5277305,11171.875,-2704,1.6578786021,-240,-0.1471489884,-16144,9.8982219497,-1122,8.7804878049,-144,68.4146341463,-25,1.5243902439,2,-0.0086956522,-55,-0.2391304348,130,-0.6341463415
5277945,11191.40625,-2144,1.3145309626,1248,0.7651747394,-16432,10.0748007357,-57,3.7804878049,-62,3.4756097561,14,-0.8536585366,2,-0.0086956522,-53,-0.2304347826,130,-0.6341463415
5278585,11210.9375,-2976,1.8246474555,1648,1.0104230533,-16656,10.2121397915,-57,3.7804878049,-62,3.4756097561,14,-0.8536585366,2,-0.0086956522,-55,-0.2391304348,132,-0.643902439
5279225,11230.46875,-3456,2.1189454323,1456,0.8927038627,-16416,10.0649908032,167,6.8292682927,-112,-10.1829268293,10,-0.6097560976,4,-0.0173913043,-56,-0.2434782609,133,-0.6487804878
5279865,11250,-3904,2.3936235438,1680,1.0300429185,-16000,9.8099325567,167,6.8292682927,-112,-10.1829268293,10,-0.6097560976,4,-0.0173913043,-54,-0.2347826087,130,-0.6341463415
5280505,11269.53125,-4144,2.5407725322,1712,1.0496627836,-15632,9.5843041079,128,8.2317073171,-135,-7.8048780488,-25,1.5243902439,4,-0.0173913043,-52,-0.2260869565,129,-0.6292682927
5281145,11289.0625,-4288,2.6290619252,1616,0.9908031882,-15456,9.4763948498,-48,9.2073170732,-151,2.9268292683,-41,2.5,4,-0.0173913043,-52,-0.2260869565,128,-0.6243902439
5281785,11308.59375,-4048,2.4819129368,1776,1.0889025138,-15360,9.4175352544,-48,9.2073170732,-151,2.9268292683,-41,2.5,3,-0.0130434783,-55,-0.2391304348,130,-0.6341463415
5282425,11328.125,-3856,2.3641937462,1936,1.1870018394,-15216,9.3292458614,-143,8.6585365854,-142,8.7195121951,-41,2.5,5,-0.0217391304,-54,-0.2347826087,129,-0.6292682927
5283065,11347.65625,-3568,2.1876149601,1936,1.1870018394,-15072,9.2409564684,-17,7.1951219512,-118,1.0365853659,-19,1.1585365854,4,-0.0173913043,-54,-0.2347826087,129,-0.6292682927
5283705,11367.1875,-3552,2.1778050276,1952,1.1968117719,-15120,9.2703862661,-17,7.1951219512,-118,1.0365853659,-19,1.1585365854,5,-0.0217391304,-57,-0.247826087,130,-0.6341463415
5284345,11386.71875,-3728,2.2857142857,1952,1.1968117719,-15104,9.2605763335,102,5.8536585366,-96,-6.2195121951,-18,1.0975609756,3,-0.0130434783,-53,-0.2304347826,131,-0.6390243902
5284985,11406.25,-3936,2.413243409,1856,1.1379521766,-15040,9.2213366033,102,5.8536585366,-96,-6.2195121951,-18,1.0975609756,2,-0.0086956522,-59,-0.2565217391,131,-0.6390243902
5285625,11425.78125,-4096,2.5113427345,1968,1.2066217045,-15088,9.250766401,74,4.9390243902,-81,-4.512195122,-22,1.3414634146,4,-0.0173913043,-58,-0.252173913,129,-0.6292682927
5286265,11445.3125,-4144,2.5407725322,2080,1.2752912324,-15088,9.250766401,-11,4.3902439024,-72,0.6707317073,2,-0.1219512195,6,-0.0260869565,-59,-0.2565217391,130,-0.6341463415
5286905,11464.84375,-4000,2.4524831392,2080,1.2752912324,-15104,9.2605763335,-11,4.3902439024,-72,0.6707317073,2,-0.1219512195,4,-0.0173913043,-58,-0.252173913,131,-0.6390243902
5287545,11484.375,-3760,2.3053341508,2112,1.2949110975,-15168,9.2998160638,-28,3.2926829268,-54,1.7073170732,-1,0.0609756098,4,-0.0173913043,-55,-0.2391304348,131,-0.6390243902
5288185,11503.90625,-3728,2.2857142857,1984,1.216431637,-15264,9.3586756591,-28,3.2926829268,-54,1.7073170732,-1,0.0609756098,4,-0.0173913043,-58,-0.252173913,128,-0.6243902439
5288825,11523.4375,-3840,2.3543838136,1936,1.1870018394,-15248,9.3488657265,69,2.0731707317,-34,-4.2073170732,0,0,6,-0.0260869565,-61,-0.2652173913,130,-0.6341463415
5289465,11542.96875,-4048,2.4819129368,1872,1.1477621091,-15424,9.4567749847,84,2.3780487805,-39,-5.1219512195,1,-0.0609756098,5,-0.0217391304,-56,-0.2434782609,129,-0.6292682927
5290105,11562.5,-4160,2.5505824647,1952,1.1968117719,-15504,9.5058246475,84,2.3780487805,-39,-5.1219512195,1,-0.0609756098,4,-0.0173913043,-55,-0.2391304348,131,-0.6390243902
5290745,11582.03125,-4096,2.5113427345,1952,1.1968117719,-15424,9.4567749847,12,3.2926829268,-54,-0.7317073171,-13,0.7926829268,4,-0.0173913043,-53,-0.2304347826,129,-0.6292682927
5291385,11601.5625,-4096,2.5113427345,1952,1.1968117719,-15520,9.51563458,-16,3.6585365854,-60,0.9756097561,-26,1.5853658537,6,-0.0260869565,-57,-0.247826087,129,-0.6292682927
5292025,11621.09375,-3952,2.4230533415,1920,1.1771919068,-15424,9.4567749847,-16,3.6585365854,-60,0.9756097561,-26,1.5853658537,5,-0.0217391304,-57,-0.247826087,130,-0.6341463415
5292665,11640.625,-3920,2.4034334764,1920,1.1771919068,-15504,9.5058246475,21,3.4756097561,-57,-1.2804878049,-12,0.7317073171,5,-0.0217391304,-58,-0.252173913,131,-0.6390243902
5293305,11660.15625,-4160,2.5505824647,1904,1.1673819742,-15424,9.4567749847,21,3.4756097561,-57,-1.2804878049,-12,0.7317073171,3,-0.0130434783,-55,-0.2391304348,130,-0.6341463415
5293945,11679.6875,-4272,2.6192519926,1920,1.1771919068,-15424,9.4567749847,30,4.0853658537,-67,-1.8292682927,-16,0.9756097561,4,-0.0173913043,-54,-0.2347826087,128,-0.6243902439
5294585,11699.21875,-4320,2.6486817903,1952,1.1968117719,-15344,9.4077253219,-4,4.3902439024,-72,0.243902439,-16,0.9756097561,7,-0.0304347826,-60,-0.2608695652,131,-0.6390243902
5295225,11718.75,-4272,2.6192519926,1952,1.1968117719,-15264,9.3586756591,-4,4.3902439024,-72,0.243902439,-16,0.9756097561,6,-0.0260869565,-56,-0.2434782609,130,-0.6341463415
5295865,11738.28125,-4400,2.6977314531,2000,1.2262415696,-15312,9.3881054568,45,3.6585365854,-60,-2.743902439,11,-0.6707317073,7,-0.0304347826,-57,-0.247826087,130,-0.6341463415
5296505,11757.8125,-4688,2.8743102391,1920,1.1771919068,-15440,9.4665849172,45,3.6585365854,-60,-2.743902439,11,-0.6707317073,5,-0.0217391304,-59,-0.2565217391,131,-0.6390243902
5297145,11777.34375,-4736,2.9037400368,2032,1.2458614347,-15472,9.4862047823,11,4.1463414634,-68,-0.6707317073,29,-1.7682926829,4,-0.0173913043,-58,-0.252173913,129,-0.6292682927
5297785,11796.875,-4704,2.8841201717,1984,1.216431637,-15424,9.4567749847,-23,3.9634146341,-65,1.4024390244,41,-2.5,4,-0.0173913043,-52,-0.2260869565,130,-0.6341463415
5298425,11816.40625,-4752,2.9135499693,1888,1.1575720417,-15360,9.4175352544,-23,3.9634146341,-65,1.4024390244,41,-2.5,6,-0.0260869565,-59,-0.2565217391,130,-0.6341463415
5299065,11835.9375,-4672,2.8645003066,1760,1.0790925812,-15360,9.4175352544,-14,3.7195121951,-61,0.8536585366,77,-4.6951219512,4,-0.0173913043,-59,-0.2565217391,130,-0.6341463415
5299705,11855.46875,-4464,2.7369711833,1840,1.128142244,-15392,9.4371551196,4,3.6585365854,-60,-0.243902439,102,-6.2195121951,4,-0.0173913043,-59,-0.2565217391,129,-0.6292682927
5300345,11875,-4320,2.6486817903,1840,1.128142244,-15360,9.4175352544,4,3.6585365854,-60,-0.243902439,102,-6.2195121951,0,0,-55,-0.2391304348,129,-0.6292682927
5300985,11894.53125,-4224,2.589822195,1888,1.1575720417,-15360,9.4175352544,18,3.4756097561,-57,-1.0975609756,108,-6.5853658537,6,-0.0260869565,-61,-0.2652173913,130,-0.6341463415
5301625,11914.0625,-4240,2.5996321275,2048,1.2556713673,-15216,9.3292458614,18,3.4756097561,-57,-1.0975609756,108,-6.5853658537,4,-0.0173913043,-58,-0.252173913,130,-0.6341463415
5302265,11933.59375,-4064,2.4917228694,2128,1.30472103,-15328,9.3979153893,-43,3.8414634146,-63,2.6219512195,90,-5.487804878,4,-0.0173913043,-55,-0.2391304348,130,-0.6341463415
5302905,11953.125,-3936,2.413243409,2192,1.3439607603,-15536,9.5254445126,-15,3.9024390244,-64,0.9146341463,99,-6.0365853659,3,-0.0130434783,-61,-0.2652173913,130,-0.6341463415
5303545,11972.65625,-3760,2.3053341508,2096,1.2851011649,-15600,9.5646842428,-15,3.9024390244,-64,0.9146341463,99,-6.0365853659,6,-0.0260869565,-62,-0.2695652174,132,-0.643902439
5304185,11992.1875,-3712,2.2759043532,1984,1.216431637,-15504,9.5058246475,62,3.7195121951,-61,-3.7804878049,125,-7.6219512195,4,-0.0173913043,-59,-0.2565217391,131,-0.6390243902
5304825,12011.71875,-3616,2.2170447578,2000,1.2262415696,-15344,9.4077253219,62,3.7195121951,-61,-3.7804878049,125,-7.6219512195,5,-0.0217391304,-60,-0.2608695652,131,-0.6390243902
5305465,12031.25,-3680,2.256284488,2160,1.3243408952,-15216,9.3292458614,43,3.5975609756,-59,-2.6219512195,104,-6.3414634146,4,-0.0173913043,-58,-0.252173913,131,-0.6390243902
5306105,12050.78125,-3520,2.1581851625,2304,1.4126302882,-15104,9.2605763335,-48,4.3902439024,-72,2.9268292683,23,-1.4024390244,4,-0.0173913043,-57,-0.247826087,131,-0.6390243902
5306745,12070.3125,-3424,2.0993255671,2272,1.3930104231,-15056,9.2311465359,-48,4.3902439024,-72,2.9268292683,23,-1.4024390244,3,-0.0130434783,-58,-0.252173913,129,-0.6292682927
5307385,12089.84375,-3392,2.079705702,2144,1.3145309626,-15072,9.2409564684,-57,4.1463414634,-68,3.4756097561,-26,1.5853658537,5,-0.0217391304,-59,-0.2565217391,131,-0.6390243902
5308025,12109.375,-3536,2.167995095,2320,1.4224402207,-15328,9.3979153893,-57,4.1463414634,-68,3.4756097561,-26,1.5853658537,5,-0.0217391304,-56,-0.2434782609,128,-0.6243902439
5308665,12128.90625,-4064,2.4917228694,2400,1.4714898835,-15600,9.5646842428,32,2.743902439,-45,-1.9512195122,-14,0.8536585366,5,-0.0217391304,-62,-0.2695652174,131,-0.6390243902
5309305,12148.4375,-4848,2.9724095647,2288,1.4028203556,-16080,9.8589822195,49,2.012195122,-33,-2.987804878,36,-2.1951219512,6,-0.0260869565,-59,-0.2565217391,130,-0.6341463415
5309945,12167.96875,-6192,3.7964438994,2336,1.4322501533,-16688,10.2317596567,49,2.012195122,-33,-2.987804878,36,-2.1951219512,6,-0.0260869565,-60,-0.2608695652,131,-0.6390243902
5310585,12187.5,-7296,4.4733292459,2064,1.2654812998,-17568,10.7713059473,0,2.6829268293,-44,0,103,-6.2804878049,4,-0.0173913043,-62,-0.2695652174,132,-0.643902439
5311225,12207.03125,-7984,4.8951563458,1856,1.1379521766,-18128,11.1146535868,18,10.7926829268,-177,-1.0975609756,261,-15.9146341463,4,-0.0173913043,-60,-0.2608695652,130,-0.6341463415
5311865,12226.5625,-8368,5.1305947272,1616,0.9908031882,-18256,11.1931330472,18,10.7926829268,-177,-1.0975609756,261,-15.9146341463,5,-0.0217391304,-63,-0.2739130435,130,-0.6341463415
5312505,12246.09375,-8720,5.3464132434,1440,0.8828939301,-18128,11.1146535868,241,19.1463414634,-314,-14.6951219512,437,-26.6463414634,5,-0.0217391304,-63,-0.2739130435,130,-0.6341463415
5313145,12265.625,-9120,5.5916615573,1536,0.9417535254,-17712,10.8595953403,241,19.1463414634,-314,-14.6951219512,437,-26.6463414634,6,-0.0260869565,-66,-0.2869565217,129,-0.6292682927
5313785,12285.15625,-9328,5.7191906806,1536,0.9417535254,-17584,10.7811158798,370,24.1463414634,-396,-22.5609756098,619,-37.743902439,4,-0.0173913043,-63,-0.2739130435,129,-0.6292682927
5314425,12304.6875,-9136,5.6014714899,1424,0.8730839975,-17616,10.8007357449,409,27.6219512195,-453,-24.9390243902,867,-52.8658536585,6,-0.0260869565,-69,-0.3,127,-0.6195121951
5315065,12324.21875,-8960,5.4935622318,1664,1.0202329859,-17760,10.889025138,409,27.6219512195,-453,-24.9390243902,867,-52.8658536585,5,-0.0217391304,-67,-0.2913043478,126,-0.6146341463
5315705,12343.75,-8736,5.356223176,1712,1.0496627836,-18144,11.1244635193,408,30.1219512195,-494,-24.8780487805,1095,-66.7682926829,2,-0.0086956522,-72,-0.3130434783,125,-0.6097560976
5316345,12363.28125,-8080,4.9540159411,1600,0.9809932557,-18272,11.2029429798,408,30.1219512195,-494,-24.8780487805,1095,-66.7682926829,7,-0.0304347826,-76,-0.3304347826,124,-0.6048780488
5316985,12382.8125,-7408,4.5419987738,1632,1.0006131208,-18480,11.330472103,402,36.1585365854,-593,-24.512195122,1264,-77.0731707317,6,-0.0260869565,-80,-0.347826087,124,-0.6048780488
5317625,12402.34375,-7104,4.3556100552,1904,1.1673819742,-18528,11.3599019007,330,43.2317073171,-709,-20.1219512195,1393,-84.9390243902,4,-0.0173913043,-78,-0.3391304348,124,-0.6048780488
5318265,12421.875,-6496,3.982832618,1968,1.2066217045,-18624,11.418761496,330,43.2317073171,-709,-20.1219512195,1393,-84.9390243902,3,-0.0130434783,-83,-0.3608695652,122,-0.5951219512
5318905,12441.40625,-5312,3.2568976088,1984,1.216431637,-18432,11.3010423053,58,53.0487804878,-870,-3.5365853659,1493,-91.0365853659,4,-0.0173913043,-90,-0.3913043478,121,-0.5902439024
5319545,12460.9375,-4240,2.5996321275,2176,1.3341508277,-17872,10.9576946658,27,62.5,-1025,-1.6463414634,1519,-92.6219512195,1,-0.0043478261,-94,-0.4086956522,120,-0.5853658537
5320185,12480.46875,-3040,1.8638871858,2464,1.5107296137,-17120,10.4966278357,27,62.5,-1025,-1.6463414634,1519,-92.6219512195,-1,0.0043478261,-93,-0.4043478261,119,-0.5804878049
5320825,12500,-2176,1.3341508277,3056,1.8736971183,-16192,9.9276517474,66,70.0609756098,-1149,-4.0243902439,1433,-87.3780487805,-2,0.0086956522,-97,-0.4217391304,117,-0.5707317073
5321465,12519.53125,-1824,1.1183323115,3600,2.2072348253,-15216,9.3292458614,66,70.0609756098,-1149,-4.0243902439,1433,-87.3780487805,-2,0.0086956522,-105,-0.4565217391,117,-0.5707317073
5322105,12539.0625,-1808,1.1085223789,4016,2.4622930717,-14304,8.7700797057,47,72.6829268293,-1192,-2.8658536585,1355,-82.6219512195,-6,0.0260869565,-103,-0.447826087,112,-0.5463414634
5322745,12558.59375,-1536,0.9417535254,4432,2.7173513182,-13328,8.1716738197,-271,75.7926829268,-1243,16.5243902439,1209,-73.7195121951,-6,0.0260869565,-108,-0.4695652174,113,-0.5512195122
5323385,12578.125,-1456,0.8927038627,4976,3.0508890251,-12320,7.5536480687,-271,75.7926829268,-1243,16.5243902439,1209,-73.7195121951,-12,0.052173913,-112,-0.4869565217,110,-0.5365853659
5324025,12597.65625,-1488,0.9123237278,6032,3.6983445739,-11360,6.9650521153,-509,73.4756097561,-1205,31.0365853659,1095,-66.7682926829,-12,0.052173913,-116,-0.5043478261,112,-0.5463414634
5324665,12617.1875,-1008,0.6180257511,6800,4.1692213366,-10576,6.48436542,-509,73.4756097561,-1205,31.0365853659,1095,-66.7682926829,-16,0.0695652174,-117,-0.5086956522,108,-0.5268292683
5325305,12636.71875,-336,0.2060085837,7280,4.4635193133,-10320,6.3274064991,-705,63.7804878049,-1046,42.987804878,997,-60.7926829268,-14,0.0608695652,-120,-0.5217391304,109,-0.5317073171
5325945,12656.25,272,-0.1667688535,7904,4.846106683,-10272,6.2979767014,-595,56.0975609756,-920,36.2804878049,937,-57.1341463415,-18,0.0782608696,-123,-0.5347826087,107,-0.5219512195
5326585,12675.78125,576,-0.353157572,8512,5.2188841202,-9904,6.0723482526,-595,56.0975609756,-920,36.2804878049,937,-57.1341463415,-21,0.0913043478,-126,-0.547826087,107,-0.5219512195
5327225,12695.3125,864,-0.5297363581,8960,5.4935622318,-9696,5.9448191294,-488,47.6219512195,-781,29.756097561,868,-52.9268292683,-25,0.1086956522,-125,-0.5434782609,106,-0.5170731707
5327865,12714.84375,1280,-0.7847946045,9440,5.7878602085,-9456,5.797670141,-466,42.3780487805,-695,28.4146341463,765,-46.6463414634,-23,0.1,-130,-0.5652173913,104,-0.5073170732
5328505,12734.375,2032,-1.2458614347,9808,6.0134886573,-9168,5.621091355,-466,42.3780487805,-695,28.4146341463,765,-46.6463414634,-25,0.1086956522,-132,-0.5739130435,104,-0.5073170732
5329145,12753.90625,2448,-1.5009196812,10112,6.1998773758,-9200,5.6407112201,-323,35.6707317073,-585,19.6951219512,647,-39.4512195122,-28,0.1217391304,-126,-0.547826087,104,-0.5073170732
5329785,12773.4375,3040,-1.8638871858,10448,6.4058859595,-9328,5.7191906806,-323,35.6707317073,-585,19.6951219512,647,-39.4512195122,-30,0.1304347826,-128,-0.5565217391,103,-0.5024390244
5330425,12792.96875,3872,-2.3740036787,10512,6.4451256898,-8976,5.5033721643,-167,31.2195121951,-512,10.1829268293,493,-30.0609756098,-29,0.1260869565,-135,-0.5869565217,102,-0.4975609756
5331065,12812.5,4288,-2.6290619252,10896,6.6805640711,-8544,5.2385039853,157,21.6463414634,-355,-9.5731707317,339,-20.6707317073,-34,0.147826087,-131,-0.5695652174,102,-0.4975609756
5331705,12832.03125,4160,-2.5505824647,11248,6.8963825874,-8384,5.1404046597,157,21.6463414634,-355,-9.5731707317,339,-20.6707317073,-32,0.1391304348,-132,-0.5739130435,102,-0.4975609756
5332345,12851.5625,3936,-2.413243409,11216,6.8767627223,-8528,5.2286940527,259,13.1097560976,-215,-15.7926829268,187,-11.4024390244,-32,0.1391304348,-132,-0.5739130435,100,-0.487804878
5332985,12871.09375,3904,-2.3936235438,11088,6.7982832618,-8320,5.1011649295,259,13.1097560976,-215,-15.7926829268,187,-11.4024390244,-32,0.1391304348,-137,-0.5956521739,100,-0.487804878
5333625,12890.625,4016,-2.4622930717,10992,6.7394236665,-7920,4.8559166156,44,6.3414634146,-104,-2.6829268293,-4,0.243902439,-31,0.1347826087,-135,-0.5869565217,101,-0.4926829268
5334265,12910.15625,4512,-2.766400981,11104,6.8080931944,-7696,4.7185775598,-66,-2.4390243902,40,4.0243902439,-209,12.743902439,-32,0.1391304348,-133,-0.5782608696,98,-0.4780487805
5334905,12929.6875,4736,-2.9037400368,11280,6.9160024525,-7728,4.7381974249,-66,-2.4390243902,40,4.0243902439,-209,12.743902439,-30,0.1304347826,-133,-0.5782608696,99,-0.4829268293
5335545,12949.21875,4688,-2.8743102391,11232,6.8865726548,-7872,4.8264868179,72,-13.8414634146,227,-4.3902439024,-332,20.243902439,-31,0.1347826087,-134,-0.5826086957,101,-0.4926829268
5336185,12968.75,4624,-2.8350705089,10736,6.5824647456,-7920,4.8559166156,72,-13.8414634146,227,-4.3902439024,-332,20.243902439,-30,0.1304347826,-128,-0.5565217391,100,-0.487804878
5336825,12988.28125,4704,-2.8841201717,10176,6.2391171061,-7456,4.5714285714,90,-22.8658536585,375,-5.487804878,-493,30.0609756098,-27,0.1173913043,-129,-0.5608695652,101,-0.4926829268
5337465,13007.8125,4640,-2.8448804414,9936,6.0919681177,-7424,4.5518087063,38,-35.9756097561,590,-2.3170731707,-747,45.5487804878,-27,0.1173913043,-127,-0.552173913,103,-0.5024390244
5338105,13027.34375,4096,-2.5113427345,9760,5.9840588596,-8544,5.2385039853,38,-35.9756097561,590,-2.3170731707,-747,45.5487804878,-27,0.1173913043,-128,-0.5565217391,104,-0.5073170732
5338745,13046.875,4320,-2.6486817903,9328,5.7191906806,-8832,5.4150827713,13,-43.1707317073,708,-0.7926829268,-959,58.4756097561,-24,0.1043478261,-123,-0.5347826087,105,-0.512195122
5339385,13066.40625,4272,-2.6192519926,8544,5.2385039853,-8240,5.0521152667,-70,-50.9146341463,835,4.2682926829,-1224,74.6341463415,-22,0.0956521739,-124,-0.5391304348,107,-0.5219512195
5340025,13085.9375,3888,-2.3838136113,7616,4.669527897,-8336,5.110974862,-70,-50.9146341463,835,4.2682926829,-1224,74.6341463415,-19,0.0826086957,-122,-0.5304347826,108,-0.5268292683
5340665,13105.46875,2368,-1.4518700184,7584,4.6499080319,-9520,5.8369098712,139,-61.4024390244,1007,-8.4756097561,-1442,87.9268292683,-19,0.0826086957,-117,-0.5086956522,110,-0.5365853659
5341305,13125,1440,-0.8828939301,8112,4.9736358063,-9872,6.0527283875,139,-61.4024390244,1007,-8.4756097561,-1442,87.9268292683,-16,0.0695652174,-117,-0.5086956522,112,-0.5463414634
5341945,13144.53125,1584,-0.9711833231,7264,4.4537093807,-9312,5.709380748,-265,-67.743902439,1111,16.1585365854,-1570,95.7317073171,-11,0.047826087,-115,-0.5,114,-0.556097561
5342585,13164.0625,1232,-0.7553648069,5664,3.4727161251,-10576,6.48436542,-71,-82.5609756098,1354,4.3292682927,-1553,94.6951219512,-9,0.0391304348,-110,-0.4782608696,118,-0.5756097561
5343225,13183.59375,480,-0.2942979767,5088,3.119558553,-12032,7.3770692826,-71,-82.5609756098,1354,4.3292682927,-1553,94.6951219512,-9,0.0391304348,-104,-0.452173913,119,-0.5804878049
5343865,13203.125,400,-0.2452483139,4544,2.7860208461,-12112,7.4261189454,-273,-83.4146341463,1368,16.6463414634,-1649,100.5487804878,-7,0.0304347826,-98,-0.4260869565,122,-0.5951219512
5344505,13222.65625,1472,-0.9025137952,3584,2.1974248927,-10880,6.6707541386,-273,-83.4146341463,1368,16.6463414634,-1649,100.5487804878,-7,0.0304347826,-98,-0.4260869565,123,-0.6
5345145,13242.1875,1216,-0.7455548743,2288,1.4028203556,-12560,7.700797057,-327,-93.7804878049,1538,19.9390243902,-1732,105.6097560976,-3,0.0130434783,-92,-0.4,126,-0.6146341463
5345785,13261.71875,160,-0.0980993256,2128,1.30472103,-13920,8.5346413243,-79,-94.0853658537,1543,4.8170731707,-1859,113.3536585366,-4,0.0173913043,-85,-0.3695652174,128,-0.6243902439
5346425,13281.25,112,-0.0686695279,1680,1.0300429185,-13552,8.3090128755,-79,-94.0853658537,1543,4.8170731707,-1859,113.3536585366,-3,0.0130434783,-77,-0.3347826087,131,-0.6390243902
5347065,13300.78125,1120,-0.686695279,192,0.1177191907,-13440,8.2403433476,-411,-95.1829268293,1561,25.0609756098,-1998,121.8292682927,-1,0.0043478261,-74,-0.3217391304,131,-0.6390243902
5347705,13320.3125,1472,-0.9025137952,-1408,-0.863274065,-14544,8.9172286941,196,-98.9634146341,1623,-11.9512195122,-2101,128.1097560976,0,0,-69,-0.3,133,-0.6487804878
5348345,13339.84375,-48,0.0294297977,-1712,-1.0496627836,-15168,9.2998160638,196,-98.9634146341,1623,-11.9512195122,-2101,128.1097560976,0,0,-62,-0.2695652174,133,-0.6487804878
5348985,13359.375,-848,0.5199264255,-2352,-1.4420600858,-15264,9.3586756591,151,-97.1951219512,1594,-9.2073170732,-2252,137.3170731707,5,-0.0217391304,-62,-0.2695652174,134,-0.6536585366
5349625,13378.90625,-672,0.4120171674,-3632,-2.2268546904,-15120,9.2703862661,151,-97.1951219512,1594,-9.2073170732,-2252,137.3170731707,3,-0.0130434783,-47,-0.2043478261,132,-0.643902439
5350265,13398.4375,-912,0.5591661557,-4704,-2.8841201717,-16000,9.8099325567,114,-97.6219512195,1601,-6.9512195122,-2312,140.9756097561,2,-0.0086956522,-44,-0.1913043478,132,-0.643902439
5350905,13417.96875,-2048,1.2556713673,-5248,-3.2176578786,-17376,10.6535867566,466,-96.2804878049,1579,-28.4146341463,-2278,138.9024390244,2,-0.0086956522,-37,-0.1608695652,131,-0.6390243902
5351545,13437.5,-3040,1.8638871858,-6016,-3.6885346413,-17728,10.8694052728,466,-96.2804878049,1579,-28.4146341463,-2278,138.9024390244,4,-0.0173913043,-33,-0.1434782609,132,-0.643902439
5352185,13457.03125,-2736,1.6774984672,-7440,-4.5616186389,-16768,10.2808093194,206,-84.2073170732,1381,-12.5609756098,-2291,139.6951219512,3,-0.0130434783,-28,-0.1217391304,132,-0.643902439
5352825,13476.5625,-2720,1.6676885346,-8688,-5.3267933783,-16384,10.0453709381,206,-84.2073170732,1381,-12.5609756098,-2291,139.6951219512,4,-0.0173913043,-22,-0.0956521739,129,-0.6292682927
5353465,13496.09375,-3216,1.9717964439,-9328,-5.7191906806,-17552,10.7614960147,467,-84.0853658537,1379,-28.4756097561,-2312,140.9756097561,-1,0.0043478261,-10,-0.0434782609,127,-0.6195121951
5354105,13515.625,-3216,1.9717964439,-9696,-5.9448191294,-17728,10.8694052728,741,-72.256097561,1185,-45.1829268293,-2486,151.5853658537,-1,0.0043478261,-12,-0.052173913,125,-0.6097560976
5354745,13535.15625,-3152,1.9325567137,-10464,-6.4156958921,-16272,9.9767014102,741,-72.256097561,1185,-45.1829268293,-2486,151.5853658537,-2,0.0086956522,-4,-0.0173913043,122,-0.5951219512
5355385,13554.6875,-3808,2.3347639485,-11664,-7.1514408338,-15744,9.6529736358,841,-69.3902439024,1138,-51.2804878049,-2480,151.2195121951,-1,0.0043478261,-2,-0.0086956522,122,-0.5951219512
5356025,13574.21875,-4688,2.8743102391,-12272,-7.524218271,-16336,10.0159411404,991,-59.3292682927,973,-60.4268292683,-2577,157.1341463415,-3,0.0130434783,5,0.0217391304,118,-0.5756097561
5356665,13593.75,-4544,2.7860208461,-12352,-7.5732679338,-16240,9.9570815451,991,-59.3292682927,973,-60.4268292683,-2577,157.1341463415,-6,0.0260869565,9,0.0391304348,116,-0.5658536585
5357305,13613.28125,-3904,2.3936235438,-12720,-7.7988963826,-15872,9.7314530963,962,-48.9024390244,802,-58.6585365854,-2791,170.1829268293,-8,0.0347826087,19,0.0826086957,111,-0.5414634146
5357945,13632.8125,-3536,2.167995095,-13744,-8.4267320662,-16016,9.8197424893,962,-48.9024390244,802,-58.6585365854,-2791,170.1829268293,-10,0.0434782609,23,0.1,110,-0.5365853659
5358585,13652.34375,-3696,2.2660944206,-14960,-9.1722869405,-16176,9.9178418148,1183,-38.4756097561,631,-72.1341463415,-3074,187.4390243902,-14,0.0608695652,29,0.1260869565,105,-0.512195122
5359225,13671.875,-5120,3.1391784181,-14912,-9.1428571429,-14752,9.0447578173,1128,-24.9390243902,409,-68.7804878049,-3183,194.0853658537,-17,0.0739130435,30,0.1304347826,105,-0.512195122
5359865,13691.40625,-6608,4.0515021459,-14576,-8.9368485592,-14560,8.9270386266,1128,-24.9390243902,409,-68.7804878049,-3183,194.0853658537,-23,0.1,36,0.1565217391,103,-0.5024390244
5360505,13710.9375,-6752,4.1397915389,-14448,-8.8583690987,-15280,9.3684855917,487,-14.6951219512,241,-29.6951219512,-3364,205.1219512195,-26,0.1130434783,38,0.1652173913,100,-0.487804878
5361145,13730.46875,-5424,3.3255671367,-14704,-9.0153280196,-15184,9.3096259963,487,-14.6951219512,241,-29.6951219512,-3364,205.1219512195,-32,0.1391304348,41,0.1782608696,102,-0.4975609756
5361785,13750,-4304,2.6388718578,-15088,-9.250766401,-14400,8.828939301,148,-9.6341463415,158,-9.0243902439,-3355,204.5731707317,-41,0.1782608696,45,0.1956521739,98,-0.4780487805
5362425,13769.53125,-4272,2.6192519926,-15088,-9.250766401,-13600,8.3384426732,278,-9.8170731707,161,-16.9512195122,-3244,197.8048780488,-44,0.1913043478,49,0.2130434783,97,-0.4731707317
5363065,13789.0625,-4896,3.0018393624,-14416,-8.8387492336,-13856,8.4954015941,278,-9.8170731707,161,-16.9512195122,-3244,197.8048780488,-49,0.2130434783,54,0.2347826087,98,-0.4780487805
5363705,13808.59375,-5216,3.1980380135,-13248,-8.122624157,-14384,8.8191293685,496,-7.3780487805,121,-30.243902439,-2931,178.7195121951,-57,0.247826087,57,0.247826087,97,-0.4731707317
5364345,13828.125,-5008,3.0705088903,-12752,-7.8185162477,-14256,8.740649908,858,-7.012195122,115,-52.3170731707,-2404,146.5853658537,-58,0.252173913,56,0.2434782609,94,-0.4585365854
5364985,13847.65625,-5344,3.2765174739,-12544,-7.6909871245,-13584,8.3286327406,858,-7.012195122,115,-52.3170731707,-2404,146.5853658537,-63,0.2739130435,57,0.247826087,95,-0.4634146341
5365625,13867.1875,-6272,3.8454935622,-12400,-7.6026977315,-13216,8.1030042918,738,-3.1707317073,52,-45,-1946,118.6585365854,-67,0.2913043478,56,0.2434782609,95,-0.4634146341
5366265,13886.71875,-6672,4.0907418761,-12304,-7.5438381361,-13424,8.2305334151,738,-3.1707317073,52,-45,-1946,118.6585365854,-73,0.3173913043,59,0.2565217391,94,-0.4585365854
5366905,13906.25,-6144,3.7670141018,-12176,-7.4653586757,-13408,8.2207234825,238,3.7804878049,-62,-14.512195122,-1493,91.0365853659,-71,0.3086956522,60,0.2608695652,94,-0.4585365854
5367545,13925.78125,-5136,3.1489883507,-11936,-7.3182096873,-12832,7.8675659105,118,4.6951219512,-77,-7.1951219512,-1016,61.9512195122,-78,0.3391304348,64,0.2782608696,92,-0.4487804878
5368185,13945.3125,-4752,2.9135499693,-11680,-7.1612507664,-12464,7.6419374617,118,4.6951219512,-77,-7.1951219512,-1016,61.9512195122,-78,0.3391304348,57,0.247826087,94,-0.4585365854
5368825,13964.84375,-5424,3.3255671367,-11472,-7.0337216432,-12384,7.5928877989,345,7.1951219512,-118,-21.0365853659,-457,27.8658536585,-79,0.3434782609,57,0.247826087,94,-0.4585365854
5369465,13984.375,-6400,3.9239730227,-10944,-6.7099938688,-11984,7.347639485,345,7.1951219512,-118,-21.0365853659,-457,27.8658536585,-81,0.352173913,63,0.2739130435,92,-0.4487804878
5370105,14003.90625,-7104,4.3556100552,-10544,-6.4647455549,-11680,7.1612507664,369,8.5365853659,-140,-22.5,214,-13.0487804878,-78,0.3391304348,59,0.2565217391,93,-0.4536585366
5370745,14023.4375,-7504,4.6008583691,-10880,-6.6707541386,-11824,7.2495401594,115,2.743902439,-45,-7.012195122,906,-55.243902439,-78,0.3391304348,62,0.2695652174,93,-0.4536585366
5371385,14042.96875,-7504,4.6008583691,-11760,-7.2103004292,-12320,7.5536480687,115,2.743902439,-45,-7.012195122,906,-55.243902439,-75,0.3260869565,61,0.2652173913,94,-0.4585365854
5372025,14062.5,-7440,4.5616186389,-12832,-7.8675659105,-12448,7.6321275291,-114,-2.256097561,37,6.9512195122,1500,-91.4634146341,-74,0.3217391304,57,0.247826087,94,-0.4585365854
5372665,14082.03125,-7200,4.4144696505,-13840,-8.4855916616,-12496,7.6615573268,-114,-2.256097561,37,6.9512195122,1500,-91.4634146341,-67,0.2913043478,60,0.2608695652,93,-0.4536585366
5373305,14101.5625,-6896,4.2280809319,-14496,-8.8877988964,-12448,7.6321275291,-223,-3.3536585366,55,13.5975609756,1993,-121.5243902439,-65,0.2826086957,58,0.252173913,95,-0.4634146341
5373945,14121.09375,-6480,3.9730226855,-15008,-9.2017167382,-13232,8.1128142244,-159,-4.4512195122,73,9.6951219512,2357,-143.7195121951,-60,0.2608695652,58,0.252173913,95,-0.4634146341
5374585,14140.625,-6576,4.0318822808,-15712,-9.6333537707,-14016,8.5935009197,-159,-4.4512195122,73,9.6951219512,2357,-143.7195121951,-55,0.2391304348,52,0.2260869565,95,-0.4634146341
5375225,14160.15625,-6976,4.2771305947,-16576,-10.1630901288,-14848,9.1036174126,65,-4.8780487805,80,-3.9634146341,2739,-167.012195122,-48,0.2086956522,51,0.2217391304,94,-0.4585365854
5375865,14179.6875,-7696,4.7185775598,-17360,-10.643776824,-15616,9.5744941754,211,-1.2195121951,20,-12.8658536585,3003,-183.1097560976,-47,0.2043478261,55,0.2391304348,93,-0.4536585366
5376505,14199.21875,-7984,4.8951563458,-17360,-10.643776824,-16464,10.0944206009,211,-1.2195121951,20,-12.8658536585,3003,-183.1097560976,-36,0.1565217391,48,0.2086956522,93,-0.4536585366
5377145,14218.75,-7824,4.7970570202,-17168,-10.5260576334,-17152,10.5162477008,344,4.1463414634,-68,-20.9756097561,3204,-195.3658536585,-33,0.1434782609,44,0.1913043478,94,-0.4585365854
5377785,14238.28125,-8160,5.0030656039,-17232,-10.5652973636,-17472,10.7124463519,344,4.1463414634,-68,-20.9756097561,3204,-195.3658536585,-23,0.1,38,0.1652173913,94,-0.4585365854
5378425,14257.8125,-9088,5.5720416922,-16960,-10.3985285101,-17184,10.5358675659,653,12.5,-205,-39.8170731707,3526,-215,-19,0.0826086957,37,0.1608695652,94,-0.4585365854
5379065,14277.34375,-9808,6.0134886573,-16464,-10.0944206009,-16784,10.290619252,348,21.2804878049,-349,-21.2195121951,3700,-225.6097560976,-10,0.0434782609,32,0.1391304348,93,-0.4536585366
5379705,14296.875,-9568,5.8663396689,-16288,-9.9865113427,-16944,10.3887185776,348,21.2804878049,-349,-21.2195121951,3700,-225.6097560976,-7,0.0304347826,26,0.1130434783,94,-0.4585365854
5380345,14316.40625,-8544,5.2385039853,-15920,-9.7608828939,-16544,10.1434702636,-286,31.4634146341,-516,17.4390243902,3747,-228.4756097561,0,0,15,0.0652173913,95,-0.4634146341
5380985,14335.9375,-7152,4.3850398529,-15040,-9.2213366033,-16160,9.9080318823,-286,31.4634146341,-516,17.4390243902,3747,-228.4756097561,2,-0.0086956522,19,0.0826086957,94,-0.4585365854
5381625,14355.46875,-5712,3.5021459227,-14000,-8.5836909871,-16080,9.8589822195,-480,41.2195121951,-676,29.2682926829,3787,-230.9146341463,5,-0.0217391304,11,0.047826087,95,-0.4634146341
5382265,14375,-5440,3.3353770693,-13472,-8.2599632128,-15824,9.7020232986,-257,54.2073170732,-889,15.6707317073,3761,-229.3292682927,11,-0.047826087,-2,-0.0086956522,98,-0.4780487805
5382905,14394.53125,-5280,3.2372777437,-12400,-7.6026977315,-15648,9.5941140405,-257,54.2073170732,-889,15.6707317073,3761,-229.3292682927,12,-0.052173913,-6,-0.0260869565,100,-0.487804878
5383545,14414.0625,-5440,3.3353770693,-11136,-6.8277130595,-15280,9.3684855917,-140,66.7073170732,-1094,8.5365853659,3593,-219.0853658537,16,-0.0695652174,-13,-0.0565217391,100,-0.487804878
5384185,14433.59375,-5600,3.4334763948,-9648,-5.9153893317,-14688,9.0055180871,-317,74.1463414634,-1216,19.3292682927,3432,-209.2682926829,19,-0.0826086957,-20,-0.0869565217,101,-0.4926829268
5384825,14453.125,-5456,3.3451870018,-8320,-5.1011649295,-14608,8.9564684243,-317,74.1463414634,-1216,19.3292682927,3432,-209.2682926829,20,-0.0869565217,-29,-0.1260869565,104,-0.5073170732
5385465,14472.65625,-4960,3.0410790926,-6816,-4.1790312692,-14656,8.9858982219,-332,80.3658536585,-1318,20.243902439,3224,-196.5853658537,22,-0.0956521739,-35,-0.152173913,101,-0.4926829268
5386105,14492.1875,-4864,2.9822194972,-5504,-3.3746167995,-14288,8.7602697731,-332,80.3658536585,-1318,20.243902439,3224,-196.5853658537,22,-0.0956521739,-50,-0.2173913043,105,-0.512195122
5386745,14511.71875,-4928,3.0214592275,-4464,-2.7369711833,-13872,8.5052115267,-352,84.3902439024,-1384,21.4634146341,3213,-195.9146341463,21,-0.0913043478,-50,-0.2173913043,105,-0.512195122
5387385,14531.25,-4272,2.6192519926,-3504,-2.1483752299,-13568,8.3188228081,-525,90.243902439,-1480,32.012195122,3028,-184.6341463415,19,-0.0826086957,-62,-0.2695652174,105,-0.512195122
5388025,14550.78125,-2240,1.3733905579,-2176,-1.3341508277,-12672,7.7694665849,-525,90.243902439,-1480,32.012195122,3028,-184.6341463415,17,-0.0739130435,-62,-0.2695652174,104,-0.5073170732
5388665,14570.3125,-336,0.2060085837,-1168,-0.7161250766,-11904,7.2985898222,-278,85.1219512195,-1396,16.9512195122,2885,-175.9146341463,16,-0.0695652174,-80,-0.347826087,105,-0.512195122
5389305,14589.84375,-752,0.4610668302,-416,-0.2550582465,-11184,6.8571428571,-278,85.1219512195,-1396,16.9512195122,2885,-175.9146341463,13,-0.0565217391,-79,-0.3434782609,104,-0.5073170732
5389945,14609.375,-1520,0.9319435929,368,0.2256284488,-10848,6.6511342735,236,76.7682926829,-1259,-14.3902439024,2929,-178.5975609756,11,-0.047826087,-90,-0.3913043478,101,-0.4926829268
5390585,14628.90625,-1888,1.1575720417,1104,0.6768853464,-11120,6.8179031269,-14,76.4024390244,-1253,0.8536585366,2639,-160.9146341463,10,-0.0434782609,-96,-0.4173913043,102,-0.4975609756
5391225,14648.4375,-1360,0.8338442673,2272,1.3930104231,-10640,6.5236051502,-14,76.4024390244,-1253,0.8536585366,2639,-160.9146341463,6,-0.0260869565,-103,-0.447826087,99,-0.4829268293
5391865,14667.96875,-336,0.2060085837,3056,1.8736971183,-10432,6.396076027,-280,72.9268292683,-1196,17.0731707317,2426,-147.9268292683,4,-0.0173913043,-105,-0.4565217391,99,-0.4829268293
5392505,14687.5,-736,0.4512568976,4240,2.5996321275,-9872,6.0527283875,-482,69.6951219512,-1143,29.3902439024,2219,-135.3048780488,-2,0.0086956522,-113,-0.4913043478,96,-0.4682926829
5393145,14707.03125,-1456,0.8927038627,5664,3.4727161251,-9216,5.6505211527,-482,69.6951219512,-1143,29.3902439024,2219,-135.3048780488,-6,0.0260869565,-118,-0.5130434783,97,-0.4731707317
5393785,14726.5625,608,-0.3727774372,6336,3.8847332925,-8832,5.4150827713,-1167,66.8292682927,-1096,71.1585365854,1883,-114.8170731707,-9,0.0391304348,-121,-0.5260869565,96,-0.4682926829
5394425,14746.09375,3120,-1.9129368486,7392,4.5321888412,-8192,5.022685469,-1167,66.8292682927,-1096,71.1585365854,1883,-114.8170731707,-10,0.0434782609,-122,-0.5304347826,95,-0.4634146341
5395065,14765.625,4304,-2.6388718578,8768,5.3758430411,-7776,4.7676272226,-556,57.4390243902,-942,33.9024390244,1556,-94.8780487805,-15,0.0652173913,-126,-0.547826087,94,-0.4585365854
5395705,14785.15625,3872,-2.3740036787,9856,6.0429184549,-7584,4.6499080319,20,44.3902439024,-728,-1.2195121951,1226,-74.756097561,-19,0.0826086957,-130,-0.5652173913,94,-0.4585365854
5396345,14804.6875,3472,-2.1287553648,10320,6.3274064991,-7904,4.846106683,20,44.3902439024,-728,-1.2195121951,1226,-74.756097561,-21,0.0913043478,-129,-0.5608695652,91,-0.443902439
5396985,14824.21875,3824,-2.3445738811,10848,6.6511342735,-8048,4.934396076,169,40.3048780488,-661,-10.3048780488,895,-54.5731707317,-21,0.0913043478,-134,-0.5826086957,90,-0.4390243902
5397625,14843.75,4320,-2.6486817903,11248,6.8963825874,-7248,4.4438994482,169,40.3048780488,-661,-10.3048780488,895,-54.5731707317,-23,0.1,-135,-0.5869565217,88,-0.4292682927
5398265,14863.28125,3440,-2.1091354997,11792,7.2299202943,-7264,4.4537093807,475,30.4268292683,-499,-28.9634146341,658,-40.1219512195,-23,0.1,-130,-0.5652173913,88,-0.4292682927
5398905,14882.8125,2848,-1.7461679951,12064,7.3966891478,-7392,4.5321888412,326,24.2073170732,-397,-19.8780487805,425,-25.9146341463,-26,0.1130434783,-130,-0.5652173913,87,-0.4243902439
5399545,14902.34375,3232,-1.9816063765,12160,7.4555487431,-7152,4.3850398529,326,24.2073170732,-397,-19.8780487805,425,-25.9146341463,-27,0.1173913043,-138,-0.6,86,-0.4195121951
5400185,14921.875,3552,-2.1778050276,12272,7.524218271,-6976,4.2771305947,328,16.5243902439,-271,-20,270,-16.4634146341,-28,0.1217391304,-133,-0.5782608696,85,-0.4146341463
5400825,14941.40625,3056,-1.8736971183,12560,7.700797057,-7184,4.404659718,328,16.5243902439,-271,-20,270,-16.4634146341,-27,0.1173913043,-134,-0.5826086957,84,-0.4097560976
5401465,14960.9375,2608,-1.5990190067,12480,7.6517473942,-7680,4.7087676272,479,5.243902439,-86,-29.2073170732,152,-9.2682926829,-28,0.1217391304,-135,-0.5869565217,83,-0.4048780488
5402105,14980.46875,2960,-1.814837523,12368,7.5830778663,-7744,4.7480073574,383,-0.0609756098,1,-23.3536585366,33,-2.012195122,-28,0.1217391304,-136,-0.5913043478,84,-0.4097560976
5402745,15000,3184,-1.9521765788,12256,7.5144083384,-7392,4.5321888412,383,-0.0609756098,1,-23.3536585366,33,-2.012195122,-27,0.1173913043,-137,-0.5956521739,85,-0.4146341463
5403385,15019.53125,2800,-1.7167381974,12128,7.435928878,-7712,4.7283874923,430,-9.8170731707,161,-26.2195121951,-134,8.1707317073,-27,0.1173913043,-136,-0.5913043478,82,-0.4
5404025,15039.0625,2368,-1.4518700184,12112,7.4261189454,-8224,5.0423053342,146,-12.1951219512,200,-8.9024390244,-462,28.1707317073,-26,0.1130434783,-134,-0.5826086957,82,-0.4
5404665,15058.59375,2528,-1.549969344,12000,7.3574494175,-8384,5.1404046597,146,-12.1951219512,200,-8.9024390244,-462,28.1707317073,-25,0.1086956522,-136,-0.5913043478,85,-0.4146341463
5405305,15078.125,3088,-1.8933169834,11424,7.0042918455,-8112,4.9736358063,-156,-14.8780487805,244,9.512195122,-782,47.6829268293,-22,0.0956521739,-136,-0.5913043478,86,-0.4195121951
5405945,15097.65625,3760,-2.3053341508,10832,6.6413243409,-7872,4.8264868179,-156,-14.8780487805,244,9.512195122,-782,47.6829268293,-21,0.0913043478,-132,-0.5739130435,86,-0.4195121951
5406585,15117.1875,2592,-1.5892090742,10720,6.572654813,-9328,5.7191906806,125,-28.0487804878,460,-7.6219512195,-1001,61.0365853659,-18,0.0782608696,-130,-0.5652173913,86,-0.4195121951
5407225,15136.71875,2048,-1.2556713673,10368,6.3568362968,-9712,5.9546290619,-137,-25.0609756098,411,8.3536585366,-1210,73.7804878049,-18,0.0782608696,-130,-0.5652173913,87,-0.4243902439
5407865,15156.25,2768,-1.6971183323,9328,5.7191906806,-8496,5.2090741876,-137,-25.0609756098,411,8.3536585366,-1210,73.7804878049,-18,0.0782608696,-129,-0.5608695652,91,-0.443902439
5408505,15175.78125,3264,-2.0012262416,8896,5.4543225015,-7536,4.6204782342,-351,-31.1585365854,511,21.4024390244,-1451,88.4756097561,-14,0.0608695652,-119,-0.5173913043,89,-0.4341463415
5409145,15195.3125,1728,-1.0594727161,9056,5.5524218271,-9552,5.8565297364,-351,-31.1585365854,511,21.4024390244,-1451,88.4756097561,-8,0.0347826087,-122,-0.5304347826,90,-0.4390243902
5409785,15214.84375,816,-0.5003065604,9040,5.5426118945,-10480,6.4255058246,-295,-39.6951219512,651,17.987804878,-1727,105.3048780488,-7,0.0304347826,-121,-0.5260869565,94,-0.4585365854
5410425,15234.375,1568,-0.9613733906,7792,4.7774371551,-9616,5.8957694666,-902,-42.987804878,705,55,-1901,115.9146341463,-5,0.0217391304,-118,-0.5130434783,97,-0.4731707317
5411065,15253.90625,2208,-1.3537706928,6576,4.0318822808,-9216,5.6505211527,-902,-42.987804878,705,55,-1901,115.9146341463,-2,0.0086956522,-113,-0.4913043478,97,-0.4731707317
5411705,15273.4375,1648,-1.0104230533,5760,3.5315757204,-9936,6.0919681177,-503,-62.0731707317,1018,30.6707317073,-1880,114.6341463415,2,-0.0086956522,-109,-0.4739130435,101,-0.4926829268
5412345,15292.96875,608,-0.3727774372,5584,3.4236664623,-10000,6.1312078479,-623,-73.7195121951,1209,37.987804878,-1954,119.1463414634,3,-0.0130434783,-102,-0.4434782609,104,-0.5073170732
5412985,15312.5,-128,0.0784794605,5168,3.1686082158,-11440,7.0141017781,-623,-73.7195121951,1209,37.987804878,-1954,119.1463414634,5,-0.0217391304,-94,-0.4086956522,106,-0.5170731707
5413625,15332.03125,336,-0.2060085837,4336,2.6584917229,-12096,7.4163090129,-787,-76.8902439024,1261,47.987804878,-2072,126.3414634146,6,-0.0260869565,-96,-0.4173913043,108,-0.5268292683
5414265,15351.5625,752,-0.4610668302,3136,1.9227467811,-11216,6.8767627223,-787,-76.8902439024,1261,47.987804878,-2072,126.3414634146,7,-0.0304347826,-88,-0.3826086957,112,-0.5463414634
5414905,15371.09375,208,-0.1275291232,1648,1.0104230533,-10432,6.396076027,-432,-84.512195122,1386,26.3414634146,-2188,133.4146341463,8,-0.0347826087,-82,-0.3565217391,114,-0.556097561
5415545,15390.625,-752,0.4610668302,496,0.3041079093,-11936,7.3182096873,-236,-97.3780487805,1597,14.3902439024,-2467,150.4268292683,10,-0.0434782609,-83,-0.3608695652,116,-0.5658536585
5416185,15410.15625,-1136,0.6965052115,-32,-0.0196198651,-13456,8.2501532802,-236,-97.3780487805,1597,14.3902439024,-2467,150.4268292683,12,-0.052173913,-73,-0.3173913043,118,-0.5756097561
5416825,15429.6875,-640,0.3923973023,-1856,-1.1379521766,-13680,8.387492336,-262,-96.7073170732,1586,15.9756097561,-2570,156.7073170732,12,-0.052173913,-66,-0.2869565217,119,-0.5804878049
5417465,15449.21875,-2400,1.4714898835,-3184,-1.9521765788,-14400,8.828939301,-262,-96.7073170732,1586,15.9756097561,-2570,156.7073170732,12,-0.052173913,-60,-0.2608695652,120,-0.5853658537
5418105,15468.75,-3536,2.167995095,-3856,-2.3641937462,-16176,9.9178418148,162,-98.7195121951,1619,-9.8780487805,-2657,162.012195122,13,-0.0565217391,-49,-0.2130434783,119,-0.5804878049
5418745,15488.28125,-3504,2.1483752299,-4640,-2.8448804414,-16192,9.9276517474,-85,-84.6951219512,1389,5.1829268293,-2825,172.256097561,15,-0.0652173913,-45,-0.1956521739,121,-0.5902439024
5419385,15507.8125,-3424,2.0993255671,-6016,-3.6885346413,-16096,9.8687921521,-85,-84.6951219512,1389,5.1829268293,-2825,172.256097561,13,-0.0565217391,-38,-0.1652173913,120,-0.5853658537
5420025,15527.34375,-3776,2.3151440834,-7408,-4.5419987738,-16768,10.2808093194,222,-82.6829268293,1356,-13.5365853659,-2878,175.487804878,12,-0.052173913,-28,-0.1217391304,118,-0.5756097561
5420665,15546.875,-4736,2.9037400368,-8160,-5.0030656039,-18112,11.1048436542,624,-71.7073170732,1176,-38.0487804878,-2863,174.5731707317,12,-0.052173913,-25,-0.1086956522,119,-0.5804878049
5421305,15566.40625,-5200,3.1882280809,-8800,-5.3954629062,-18176,11.1440833844,624,-71.7073170732,1176,-38.0487804878,-2863,174.5731707317,11,-0.047826087,-18,-0.0782608696,117,-0.5707317073
5421945,15585.9375,-6064,3.717964439,-9840,-6.0331085224,-17664,10.8301655426,630,-62.8048780488,1030,-38.4146341463,-2789,170.0609756098,8,-0.0347826087,-10,-0.0434782609,114,-0.556097561
5422585,15605.46875,-6528,4.0024524831,-10656,-6.5334150828,-16960,10.3985285101,630,-62.8048780488,1030,-38.4146341463,-2789,170.0609756098,5,-0.0217391304,-3,-0.0130434783,111,-0.5414634146
5423225,15625,-6560,4.0220723483,-11488,-7.0435315757,-17600,10.7909258124,488,-55.1219512195,904,-29.756097561,-2793,170.3048780488,4,-0.0173913043,-2,-0.0086956522,112,-0.5463414634
5423865,15644.53125,-5968,3.6591048437,-12048,-7.3868792152,-16992,10.4181483752,399,-46.1585365854,757,-24.3292682927,-2737,166.8902439024,0,0,5,0.0217391304,110,-0.5365853659
5424505,15664.0625,-7408,4.5419987738,-12688,-7.7792765175,-17024,10.4377682403,399,-46.1585365854,757,-24.3292682927,-2737,166.8902439024,0,0,11,0.047826087,107,-0.5219512195
5425145,15683.59375,-9200,5.6407112201,-12544,-7.6909871245,-17520,10.7418761496,386,-35,574,-23.5365853659,-2651,161.6463414634,-3,0.0130434783,16,0.0695652174,105,-0.512195122
5425785,15703.125,-9280,5.6897608829,-12096,-7.4163090129,-17360,10.643776824,386,-35,574,-23.5365853659,-2651,161.6463414634,-8,0.0347826087,23,0.1,102,-0.4975609756
5426425,15722.65625,-8432,5.1698344574,-12256,-7.5144083384,-16432,10.0748007357,-252,-20.7926829268,341,15.3658536585,-2618,159.6341463415,-12,0.052173913,26,0.1130434783,105,-0.512195122
5427065,15742.1875,-8304,5.0913549969,-12480,-7.6517473942,-15024,9.2115266708,-493,-20.243902439,332,30.0609756098,-2441,148.8414634146,-16,0.0695652174,33,0.1434782609,103,-0.5024390244
5427705,15761.71875,-8608,5.2777437155,-12336,-7.5634580012,-14432,8.8485591662,-493,-20.243902439,332,30.0609756098,-2441,148.8414634146,-19,0.0826086957,31,0.1347826087,105,-0.512195122
5428345,15781.25,-7968,4.8853464132,-12016,-7.3672593501,-14608,8.9564684243,-699,-21.2195121951,348,42.6219512195,-2435,148.4756097561,-24,0.1043478261,35,0.152173913,105,-0.512195122
5428985,15800.78125,-5936,3.6394849785,-11824,-7.2495401594,-14496,8.8877988964,-443,-23.6585365854,388,27.012195122,-2437,148.5975609756,-30,0.1304347826,41,0.1782608696,105,-0.512195122
5429625,15820.3125,-4384,2.6879215205,-12352,-7.5732679338,-14464,8.8681790313,-443,-23.6585365854,388,27.012195122,-2437,148.5975609756,-31,0.1347826087,43,0.1869565217,103,-0.5024390244
5430265,15839.84375,-5856,3.5904353158,-13056,-8.0049049663,-14400,8.828939301,517,-27.8048780488,456,-31.5243902439,-2201,134.2073170732,-35,0.152173913,43,0.1869565217,103,-0.5024390244
5430905,15859.375,-7568,4.6400980993,-12832,-7.8675659105,-15360,9.4175352544,517,-27.8048780488,456,-31.5243902439,-2201,134.2073170732,-40,0.1739130435,48,0.2086956522,101,-0.4926829268
5431545,15878.90625,-8912,5.4641324341,-11792,-7.2299202943,-15920,9.7608828939,713,-17.5609756098,288,-43.4756097561,-2003,122.1341463415,-44,0.1913043478,52,0.2260869565,99,-0.4829268293
5432185,15898.4375,-8640,5.2973635806,-10784,-6.6118945432,-15648,9.5941140405,133,-9.3902439024,154,-8.1097560976,-1606,97.9268292683,-44,0.1913043478,46,0.2,99,-0.4829268293
5432825,15917.96875,-7408,4.5419987738,-11120,-6.8179031269,-15312,9.3881054568,133,-9.3902439024,154,-8.1097560976,-1606,97.9268292683,-49,0.2130434783,50,0.2173913043,98,-0.4780487805
5433465,15937.5,-6704,4.1103617413,-11568,-7.0925812385,-14864,9.1134273452,-249,-4.2682926829,70,15.1829268293,-1287,78.4756097561,-49,0.2130434783,52,0.2260869565,97,-0.4731707317
5434105,15957.03125,-5664,3.4727161251,-11088,-6.7982832618,-14848,9.1036174126,-249,-4.2682926829,70,15.1829268293,-1287,78.4756097561,-52,0.2260869565,54,0.2347826087,97,-0.4731707317
5434745,15976.5625,-5488,3.364806867,-10512,-6.4451256898,-14896,9.1330472103,-11,3.5975609756,-59,0.6707317073,-944,57.5609756098,-54,0.2347826087,54,0.2347826087,98,-0.4780487805
5435385,15996.09375,-5904,3.6198651134,-10944,-6.7099938688,-14528,8.9074187615,374,8.8414634146,-145,-22.8048780488,-342,20.8536585366,-54,0.2347826087,53,0.2304347826,98,-0.4780487805
5436025,16015.625,-6976,4.2771305947,-11600,-7.1122011036,-13552,8.3090128755,374,8.8414634146,-145,-22.8048780488,-342,20.8536585366,-54,0.2347826087,55,0.2391304348,96,-0.4682926829
5436665,16035.15625,-7424,4.5518087063,-11712,-7.1808706315,-12832,7.8675659105,112,16.9512195122,-278,-6.8292682927,-56,3.4146341463,-55,0.2391304348,55,0.2391304348,98,-0.4780487805
5437305,16054.6875,-7456,4.5714285714,-11568,-7.0925812385,-12128,7.435928878,112,16.9512195122,-278,-6.8292682927,-56,3.4146341463,-57,0.247826087,56,0.2434782609,96,-0.4682926829
5437945,16074.21875,-7376,4.5223789086,-11456,-7.0239117106,-11456,7.0239117106,-441,20.5487804878,-337,26.8902439024,170,-10.3658536585,-57,0.247826087,55,0.2391304348,99,-0.4829268293
5438585,16093.75,-7024,4.3065603924,-11536,-7.0729613734,-11344,6.9552421827,-639,16.5243902439,-271,38.9634146341,605,-36.8902439024,-55,0.2391304348,51,0.2217391304,100,-0.487804878
5439225,16113.28125,-6640,4.071122011,-11872,-7.2789699571,-11552,7.0827713059,-639,16.5243902439,-271,38.9634146341,605,-36.8902439024,-55,0.2391304348,52,0.2260869565,100,-0.487804878
5439865,16132.8125,-6608,4.0515021459,-12544,-7.6909871245,-11952,7.3280196199,-568,12.3780487805,-203,34.6341463415,1126,-68.6585365854,-54,0.2347826087,54,0.2347826087,101,-0.4926829268
5440505,16152.34375,-6736,4.1299816064,-13568,-8.3188228081,-13088,8.0245248314,-330,12.1951219512,-200,20.1219512195,1533,-93.4756097561,-49,0.2130434783,49,0.2130434783,102,-0.4975609756
5441145,16171.875,-7280,4.4635193133,-13888,-8.5150214592,-14528,8.9074187615,-330,12.1951219512,-200,20.1219512195,1533,-93.4756097561,-46,0.2,46,0.2,102,-0.4975609756
5441785,16191.40625,-8064,4.9442060086,-13792,-8.4561618639,-16352,10.025751073,-12,19.1463414634,-314,0.7317073171,1824,-111.2195121951,-42,0.1826086957,45,0.1956521739,103,-0.5024390244
5442425,16210.9375,-8704,5.3366033109,-13376,-8.2011036174,-18400,11.2814224402,-12,19.1463414634,-314,0.7317073171,1824,-111.2195121951,-43,0.1869565217,49,0.2130434783,105,-0.512195122
5443065,16230.46875,-9152,5.6112814224,-13344,-8.1814837523,-20096,12.3212752912,404,25.1219512195,-412,-24.6341463415,2132,-130,-37,0.1608695652,43,0.1869565217,106,-0.5170731707
5443705,16250,-9360,5.7388105457,-14064,-8.6229307174,-20784,12.7431023912,891,27.5,-451,-54.3292682927,2769,-168.8414634146,-32,0.1391304348,38,0.1652173913,106,-0.5170731707
5444345,16269.53125,-9312,5.709380748,-15216,-9.3292458614,-20736,12.7136725935,891,27.5,-451,-54.3292682927,2769,-168.8414634146,-24,0.1043478261,34,0.147826087,105,-0.512195122
5444985,16289.0625,-9856,6.0429184549,-15808,-9.692213366,-20352,12.4782342121,1363,32.1341463415,-527,-83.1097560976,3237,-197.3780487805,-21,0.0913043478,34,0.147826087,104,-0.5073170732
5445625,16308.59375,-10560,6.4745554874,-15632,-9.5843041079,-19760,12.1152667075,1363,32.1341463415,-527,-83.1097560976,3237,-197.3780487805,-12,0.052173913,27,0.1173913043,104,-0.5073170732
5446265,16328.125,-10752,6.5922746781,-15504,-9.5058246475,-19920,12.2133660331,1055,35.487804878,-582,-64.3292682927,3514,-214.2682926829,-8,0.0347826087,23,0.1,103,-0.5024390244
5446905,16347.65625,-9648,5.9153893317,-15408,-9.4469650521,-20048,12.2918454936,215,45.1829268293,-741,-13.1097560976,3702,-225.7317073171,-4,0.0173913043,19,0.0826086957,103,-0.5024390244
5447545,16367.1875,-7632,4.6793378296,-15152,-9.2900061312,-19248,11.8013488657,215,45.1829268293,-741,-13.1097560976,3702,-225.7317073171,4,-0.0173913043,11,0.047826087,103,-0.5024390244
5448185,16386.71875,-5904,3.6198651134,-14400,-8.828939301,-18304,11.2225628449,-148,58.7804878049,-964,9.0243902439,3814,-232.5609756098,6,-0.0260869565,9,0.0391304348,103,-0.5024390244
5448825,16406.25,-5264,3.2274678112,-14000,-8.5836909871,-17936,10.9969343961,-125,69.756097561,-1144,7.6219512195,3857,-235.1829268293,11,-0.047826087,-1,-0.0043478261,104,-0.5073170732
5449465,16425.78125,-4352,2.6683016554,-13136,-8.0539546291,-17264,10.5849172287,-125,69.756097561,-1144,7.6219512195,3857,-235.1829268293,14,-0.0608695652,-9,-0.0391304348,106,-0.5170731707
5450105,16445.3125,-3888,2.3838136113,-12368,-7.5830778663,-16496,10.114040466,-156,81.8292682927,-1342,9.512195122,3798,-231.5853658537,16,-0.0695652174,-20,-0.0869565217,108,-0.5268292683
5450745,16464.84375,-3136,1.9227467811,-11216,-6.8767627223,-15696,9.6235438381,-156,81.8292682927,-1342,9.512195122,3798,-231.5853658537,16,-0.0695652174,-29,-0.1260869565,110,-0.5365853659
5451385,16484.375,-2656,1.6284488044,-9776,-5.9938687922,-14800,9.074187615,-150,92.5609756098,-1518,9.1463414634,3632,-221.4634146341,18,-0.0782608696,-38,-0.1652173913,108,-0.5268292683
5452025,16503.90625,-2112,1.2949110975,-8384,-5.1404046597,-13520,8.2893930104,-184,94.2073170732,-1545,11.2195121951,3435,-209.4512195122,17,-0.0739130435,-40,-0.1739130435,110,-0.5365853659
5452665,16523.4375,-1696,1.039852851,-7136,-4.3752299203,-13280,8.1422440221,-184,94.2073170732,-1545,11.2195121951,3435,-209.4512195122,15,-0.0652173913,-52,-0.2260869565,110,-0.5365853659
5453305,16542.96875,-1376,0.8436541999,-5616,-3.4432863274,-12944,7.9362354384,-77,96.5243902439,-1583,4.6951219512,3250,-198.1707317073,17,-0.0739130435,-58,-0.252173913,108,-0.5268292683
5453945,16562.5,-832,0.5101164929,-4016,-2.4622930717,-12080,7.4064990803,-77,96.5243902439,-1583,4.6951219512,3250,-198.1707317073,15,-0.0652173913,-75,-0.3260869565,110,-0.5365853659
5454585,16582.03125,-496,0.3041079093,-2464,-1.5107296137,-11296,6.925812385,88,92.8048780488,-1522,-5.3658536585,3101,-189.0853658537,13,-0.0565217391,-73,-0.3173913043,107,-0.5219512195
5455225,16601.5625,-208,0.1275291232,-960,-0.5885959534,-10912,6.6903740037,130,85.1829268293,-1397,-7.9268292683,2929,-178.5975609756,14,-0.0608695652,-89,-0.3869565217,106,-0.5170731707
5455865,16621.09375,-208,0.1275291232,496,0.3041079093,-10624,6.5137952177,130,85.1829268293,-1397,-7.9268292683,2929,-178.5975609756,9,-0.0391304348,-88,-0.3826086957,105,-0.512195122
5456505,16640.625,-80,0.0490496628,1760,1.0790925812,-10432,6.396076027,4,81.8292682927,-1342,-0.243902439,2711,-165.3048780488,7,-0.0304347826,-97,-0.4217391304,104,-0.5073170732
5457145,16660.15625,368,-0.2256284488,2624,1.6088289393,-10320,6.3274064991,12,78.9634146341,-1295,-0.7317073171,2514,-153.2926829268,5,-0.0217391304,-105,-0.4565217391,102,-0.4975609756
5457785,16679.6875,1040,-0.6376456162,3536,2.167995095,-10032,6.1508277131,12,78.9634146341,-1295,-0.7317073171,2514,-153.2926829268,1,-0.0043478261,-112,-0.4869565217,100,-0.487804878
5458425,16699.21875,1088,-0.6670754139,4368,2.678111588,-9456,5.797670141,-50,72.012195122,-1181,3.0487804878,2255,-137.5,-5,0.0217391304,-112,-0.4869565217,100,-0.487804878
5459065,16718.75,752,-0.4610668302,5472,3.3549969344,-8592,5.267933783,-50,72.012195122,-1181,3.0487804878,2255,-137.5,-8,0.0347826087,-118,-0.5130434783,97,-0.4731707317
5459705,16738.28125,1184,-0.7259350092,6256,3.8356836297,-8048,4.934396076,-571,64.9390243902,-1065,34.8170731707,1896,-115.6097560976,-10,0.0434782609,-122,-0.5304347826,96,-0.4682926829
5460345,16757.8125,2224,-1.3635806254,7344,4.5027590435,-8176,5.0128755365,-780,59.9390243902,-983,47.5609756098,1500,-91.4634146341,-13,0.0565217391,-127,-0.552173913,97,-0.4731707317
5460985,16777.34375,3472,-2.1287553648,8272,5.0717351318,-8448,5.1796443899,-780,59.9390243902,-983,47.5609756098,1500,-91.4634146341,-18,0.0782608696,-124,-0.5391304348,93,-0.4536585366
5461625,16796.875,4384,-2.6879215205,9056,5.5524218271,-8576,5.2581238504,-365,53.3536585366,-875,22.256097561,1290,-78.6585365854,-21,0.0913043478,-128,-0.5565217391,93,-0.4536585366
5462265,16816.40625,4288,-2.6290619252,10064,6.1704475782,-8864,5.4347026364,-365,53.3536585366,-875,22.256097561,1290,-78.6585365854,-22,0.0956521739,-128,-0.5565217391,91,-0.443902439
5462905,16835.9375,4160,-2.5505824647,10832,6.6413243409,-8832,5.4150827713,145,46.5853658537,-764,-8.8414634146,1116,-68.0487804878,-24,0.1043478261,-130,-0.5652173913,89,-0.4341463415
5463545,16855.46875,4048,-2.4819129368,11520,7.0631514408,-8400,5.1502145923,350,43.1097560976,-707,-21.3414634146,982,-59.8780487805,-25,0.1086956522,-133,-0.5782608696,88,-0.4292682927
5464185,16875,3856,-2.3641937462,12496,7.6615573268,-8320,5.1011649295,350,43.1097560976,-707,-21.3414634146,982,-59.8780487805,-28,0.1217391304,-135,-0.5869565217,86,-0.4195121951
5464825,16894.53125,3584,-2.1974248927,12608,7.7302268547,-8336,5.110974862,373,37.3780487805,-613,-22.743902439,850,-51.8292682927,-31,0.1347826087,-138,-0.6,86,-0.4195121951
5465465,16914.0625,3424,-2.0993255671,12288,7.5340282036,-8016,4.9147762109,373,37.3780487805,-613,-22.743902439,850,-51.8292682927,-33,0.1434782609,-140,-0.6086956522,84,-0.4097560976
5466105,16933.59375,3648,-2.2366646229,12640,7.7498467198,-7072,4.3359901901,139,34.0243902439,-558,-8.4756097561,658,-40.1219512195,-32,0.1391304348,-139,-0.6043478261,82,-0.4
5466745,16953.125,3936,-2.413243409,12928,7.9264255058,-6960,4.2673206622,-33,22.743902439,-373,2.012195122,419,-25.5487804878,-34,0.147826087,-141,-0.6130434783,81,-0.3951219512
5467385,16972.65625,4304,-2.6388718578,12832,7.8675659105,-7296,4.4733292459,-33,22.743902439,-373,2.012195122,419,-25.5487804878,-35,0.152173913,-141,-0.6130434783,82,-0.4
5468025,16992.1875,4576,-2.8056407112,12848,7.877375843,-7072,4.3359901901,-23,15.487804878,-254,1.4024390244,314,-19.1463414634,-37,0.1608695652,-139,-0.6043478261,80,-0.3902439024
5468665,17011.71875,4816,-2.9527896996,13104,8.0343347639,-7088,4.3458001226,13,5.4268292683,-89,-0.7926829268,134,-8.1707317073,-35,0.152173913,-142,-0.6173913043,80,-0.3902439024
5469305,17031.25,4912,-3.0116492949,12960,7.9460453709,-7456,4.5714285714,13,5.4268292683,-89,-0.7926829268,134,-8.1707317073,-36,0.1565217391,-143,-0.6217391304,81,-0.3951219512
5469945,17050.78125,4512,-2.766400981,12880,7.8969957082,-7696,4.7185775598,69,0.9146341463,-15,-4.2073170732,-38,2.3170731707,-36,0.1565217391,-138,-0.6,81,-0.3951219512
5470585,17070.3125,4016,-2.4622930717,13040,7.9950950337,-7728,4.7381974249,69,0.9146341463,-15,-4.2073170732,-38,2.3170731707,-37,0.1608695652,-138,-0.6,82,-0.4
5471225,17089.84375,4000,-2.4524831392,12752,7.8185162477,-7856,4.8166768853,-91,-2.4390243902,40,5.5487804878,-233,14.2073170732,-35,0.152173913,-141,-0.6130434783,81,-0.3951219512
5471865,17109.375,3952,-2.4230533415,12704,7.78908645,-8112,4.9736358063,-38,-7.8048780488,128,2.3170731707,-414,25.243902439,-34,0.147826087,-138,-0.6,79,-0.3853658537
5472505,17128.90625,3584,-2.1974248927,12544,7.6909871245,-8544,5.2385039853,-38,-7.8048780488,128,2.3170731707,-414,25.243902439,-35,0.152173913,-138,-0.6,82,-0.4
5473145,17148.4375,3552,-2.1778050276,12384,7.5928877989,-8448,5.1796443899,-17,-10.243902439,168,1.0365853659,-548,33.4146341463,-33,0.1434782609,-135,-0.5869565217,82,-0.4
5473785,17167.96875,4096,-2.5113427345,11872,7.2789699571,-7808,4.7872470877,-17,-10.243902439,168,1.0365853659,-548,33.4146341463,-32,0.1391304348,-140,-0.6086956522,83,-0.4048780488
5474425,17187.5,3872,-2.3740036787,12224,7.4947884733,-7664,4.6989576947,-51,-15,246,3.1097560976,-732,44.6341463415,-29,0.1260869565,-138,-0.6,84,-0.4097560976
5475065,17207.03125,3888,-2.3838136113,12224,7.4947884733,-8016,4.9147762109,-94,-22.9268292683,376,5.7317073171,-924,56.3414634146,-27,0.1173913043,-135,-0.5869565217,84,-0.4097560976
5475705,17226.5625,4496,-2.7565910484,11280,6.9160024525,-7456,4.5714285714,-94,-22.9268292683,376,5.7317073171,-924,56.3414634146,-25,0.1086956522,-133,-0.5782608696,85,-0.4146341463
5476345,17246.09375,5424,-3.3255671367,10832,6.6413243409,-5904,3.6198651134,-314,-27.6219512195,453,19.1463414634,-1166,71.0975609756,-24,0.1043478261,-134,-0.5826086957,89,-0.4341463415
5476985,17265.625,5520,-3.3844267321,10160,6.2293071735,-6368,3.9043531576,-183,-45.6707317073,749,11.1585365854,-1482,90.3658536585,-21,0.0913043478,-132,-0.5739130435,90,-0.4390243902
5477625,17285.15625,4640,-2.8448804414,9632,5.9055793991,-7584,4.6499080319,-183,-45.6707317073,749,11.1585365854,-1482,90.3658536585,-18,0.0782608696,-128,-0.5565217391,91,-0.443902439
5478265,17304.6875,4240,-2.5996321275,9136,5.6014714899,-7776,4.7676272226,-436,-52.0731707317,854,26.5853658537,-1770,107.9268292683,-16,0.0695652174,-122,-0.5304347826,93,-0.4536585366
5478905,17324.21875,5072,-3.1097486205,7920,4.8559166156,-7040,4.316370325,-436,-52.0731707317,854,26.5853658537,-1770,107.9268292683,-14,0.0608695652,-123,-0.5347826087,95,-0.4634146341
5479545,17343.75,5216,-3.1980380135,7072,4.3359901901,-7344,4.5027590435,-565,-66.3414634146,1088,34.4512195122,-2044,124.6341463415,-10,0.0434782609,-121,-0.5260869565,98,-0.4780487805
5480185,17363.28125,4048,-2.4819129368,6640,4.071122011,-7904,4.846106683,-280,-78.7195121951,1291,17.0731707317,-2251,137.256097561,-5,0.0217391304,-116,-0.5043478261,101,-0.4926829268
5480825,17382.8125,2768,-1.6971183323,5984,3.6689147762,-8304,5.0913549969,-280,-78.7195121951,1291,17.0731707317,-2251,137.256097561,-4,0.0173913043,-111,-0.4826086957,100,-0.487804878
5481465,17402.34375,1920,-1.1771919068,4640,2.8448804414,-9136,5.6014714899,-589,-90.7317073171,1488,35.9146341463,-2464,150.243902439,1,-0.0043478261,-107,-0.4652173913,107,-0.5219512195
5482105,17421.875,912,-0.5591661557,3376,2.0698957695,-10160,6.2293071735,-589,-90.7317073171,1488,35.9146341463,-2464,150.243902439,2,-0.0086956522,-98,-0.4260869565,108,-0.5268292683
5482745,17441.40625,-48,0.0294297977,2656,1.6284488044,-11360,6.9650521153,-871,-100.9146341463,1655,53.1097560976,-2549,155.4268292683,6,-0.0260869565,-91,-0.3956521739,111,-0.5414634146
5483385,17460.9375,160,-0.0980993256,2256,1.3832004905,-12464,7.6419374617,-1090,-107.8048780488,1768,66.4634146341,-2546,155.243902439,5,-0.0217391304,-86,-0.3739130435,117,-0.5707317073
5484025,17480.46875,816,-0.5003065604,1200,0.7357449418,-13120,8.0441446965,-1090,-107.8048780488,1768,66.4634146341,-2546,155.243902439,6,-0.0260869565,-79,-0.3434782609,121,-0.5902439024
5484665,17500,-176,0.1079092581,-176,-0.1079092581,-13536,8.299202943,-531,-115.5487804878,1895,32.3780487805,-2495,152.1341463415,7,-0.0304347826,-78,-0.3391304348,122,-0.5951219512
5485305,17519.53125,-1728,1.0594727161,-1312,-0.8044144697,-14496,8.8877988964,-298,-117.0731707317,1920,18.1707317073,-2521,153.7195121951,9,-0.0391304348,-66,-0.2869565217,123,-0.6
5485945,17539.0625,-2224,1.3635806254,-2848,-1.7461679951,-15952,9.780502759,-298,-117.0731707317,1920,18.1707317073,-2521,153.7195121951,8,-0.0347826087,-59,-0.2565217391,125,-0.6097560976
5486585,17558.59375,-2432,1.4911097486,-4272,-2.6192519926,-16752,10.2709993869,-193,-109.3902439024,1794,11.7682926829,-2469,150.5487804878,8,-0.0347826087,-51,-0.2217391304,128,-0.6243902439
5487225,17578.125,-3248,1.991416309,-5232,-3.207847946,-17168,10.5260576334,-193,-109.3902439024,1794,11.7682926829,-2469,150.5487804878,8,-0.0347826087,-49,-0.2130434783,128,-0.6243902439
5487865,17597.65625,-3344,2.0502759044,-6080,-3.7277743716,-17776,10.8988350705,33,-104.9390243902,1721,-2.012195122,-2464,150.243902439,7,-0.0304347826,-33,-0.1434782609,125,-0.6097560976
5488505,17617.1875,-2864,1.7559779277,-7232,-4.4340895156,-17184,10.5358675659,39,-94.6341463415,1552,-2.3780487805,-2429,148.1097560976,5,-0.0217391304,-31,-0.1347826087,125,-0.6097560976
5489145,17636.71875,-3136,1.9227467811,-8256,-5.0619251993,-16848,10.3298589822,39,-94.6341463415,1552,-2.3780487805,-2429,148.1097560976,5,-0.0217391304,-22,-0.0956521739,124,-0.6048780488
5489785,17656.25,-3600,2.2072348253,-8944,-5.4837522992,-17152,10.5162477008,397,-90.6097560976,1486,-24.2073170732,-2453,149.5731707317,6,-0.0260869565,-17,-0.0739130435,124,-0.6048780488
5490425,17675.78125,-3296,2.0208461067,-9376,-5.7486204782,-16768,10.2808093194,397,-90.6097560976,1486,-24.2073170732,-2453,149.5731707317,5,-0.0217391304,-9,-0.0391304348,123,-0.6
5491065,17695.3125,-3200,1.9619865113,-10256,-6.2881667689,-15824,9.7020232986,390,-84.3902439024,1384,-23.7804878049,-2497,152.256097561,2,-0.0086956522,-7,-0.0304347826,120,-0.5853658537
5491705,17714.84375,-3936,2.413243409,-10976,-6.7296137339,-16208,9.93746168,684,-84.756097561,1390,-41.7073170732,-2478,151.0975609756,1,-0.0043478261,0,0,118,-0.5756097561
5492345,17734.375,-4784,2.9331698345,-11248,-6.8963825874,-16496,10.114040466,684,-84.756097561,1390,-41.7073170732,-2478,151.0975609756,-2,0.0086956522,5,0.0217391304,115,-0.5609756098
5492985,17753.90625,-4272,2.6192519926,-12112,-7.4261189454,-15696,9.6235438381,552,-72.9268292683,1196,-33.6585365854,-2530,154.2682926829,-5,0.0217391304,7,0.0304347826,116,-0.5658536585
5493625,17773.4375,-3664,2.2464745555,-13168,-8.0735744942,-15200,9.3194359289,605,-68.2317073171,1119,-36.8902439024,-2603,158.7195121951,-3,0.0130434783,13,0.0565217391,113,-0.5512195122
5494265,17792.96875,-4016,2.4622930717,-13712,-8.4071122011,-15792,9.6824034335,605,-68.2317073171,1119,-36.8902439024,-2603,158.7195121951,-9,0.0391304348,18,0.0782608696,110,-0.5365853659
5494905,17812.5,-4704,2.8841201717,-13648,-8.3678724709,-16096,9.8687921521,982,-58.7195121951,963,-59.8780487805,-2753,167.8658536585,-11,0.047826087,20,0.0869565217,109,-0.5317073171
5495545,17832.03125,-5344,3.2765174739,-14352,-8.7995095034,-15488,9.4960147149,982,-58.7195121951,963,-59.8780487805,-2753,167.8658536585,-17,0.0739130435,29,0.1260869565,104,-0.5073170732
5496185,17851.5625,-5984,3.6689147762,-15216,-9.3292458614,-15392,9.4371551196,1066,-51.4024390244,843,-65,-2689,163.9634146341,-17,0.0739130435,29,0.1260869565,102,-0.4975609756
5496825,17871.09375,-6784,4.159411404,-15488,-9.4960147149,-15936,9.7706928265,1001,-35.3658536585,580,-61.0365853659,-2989,182.256097561,-23,0.1,39,0.1695652174,97,-0.4731707317
5497465,17890.625,-7824,4.7970570202,-15200,-9.3194359289,-15856,9.7216431637,1001,-35.3658536585,580,-61.0365853659,-2989,182.256097561,-26,0.1130434783,43,0.1869565217,97,-0.4731707317
5498105,17910.15625,-8752,5.3660331085,-14464,-8.8681790313,-15488,9.4960147149,410,-24.4512195122,401,-25,-3003,183.1097560976,-33,0.1434782609,46,0.2,95,-0.4634146341
5498745,17929.6875,-8960,5.4935622318,-13520,-8.2893930104,-14944,9.162477008,410,-24.4512195122,401,-25,-3003,183.1097560976,-35,0.152173913,45,0.1956521739,95,-0.4634146341
5499385,17949.21875,-7712,4.7283874923,-13520,-8.2893930104,-13888,8.5150214592,-665,-20.5487804878,337,40.5487804878,-3144,191.7073170732,-44,0.1913043478,48,0.2086956522,95,-0.4634146341
5500025,17968.75,-5008,3.0705088903,-14672,-8.9957081545,-13808,8.4659717964,-1574,-29.5731707317,485,95.9756097561,-3398,207.1951219512,-51,0.2217391304,53,0.2304347826,95,-0.4634146341
5500665,17988.28125,-1552,0.951563458,-15040,-9.2213366033,-13824,8.475781729,-1574,-29.5731707317,485,95.9756097561,-3398,207.1951219512,-59,0.2565217391,59,0.2565217391,93,-0.4536585366
5501305,18007.8125,640,-0.3923973023,-13984,-8.5738810546,-13600,8.3384426732,-736,-27.8658536585,457,44.8780487805,-3112,189.756097561,-63,0.2739130435,54,0.2347826087,94,-0.4585365854
5501945,18027.34375,-704,0.4316370325,-12976,-7.9558553035,-13648,8.3678724709,-736,-27.8658536585,457,44.8780487805,-3112,189.756097561,-70,0.3043478261,59,0.2565217391,91,-0.443902439
5502585,18046.875,-3552,2.1778050276,-12800,-7.8479460454,-13952,8.5542611895,1029,-24.5731707317,403,-62.743902439,-2218,135.243902439,-73,0.3173913043,61,0.2652173913,89,-0.4341463415
5503225,18066.40625,-6048,3.7081545064,-13680,-8.387492336,-14608,8.9564684243,1038,-15.4268292683,253,-63.2926829268,-1528,93.1707317073,-77,0.3347826087,62,0.2695652174,88,-0.4292682927
5503865,18085.9375,-6848,4.1986511343,-14416,-8.8387492336,-15296,9.3782955242,1038,-15.4268292683,253,-63.2926829268,-1528,93.1707317073,-76,0.3304347826,59,0.2565217391,88,-0.4292682927
5504505,18105.46875,-6736,4.1299816064,-14352,-8.7995095034,-15312,9.3881054568,436,-0.1219512195,2,-26.5853658537,-1071,65.3048780488,-80,0.347826087,57,0.247826087,89,-0.4341463415
5505145,18125,-6960,4.2673206622,-14272,-8.7504598406,-14816,9.0839975475,7,10.6707317073,-175,-0.4268292683,-618,37.6829268293,-81,0.352173913,60,0.2608695652,88,-0.4292682927
5505785,18144.53125,-7440,4.5616186389,-14288,-8.7602697731,-14176,8.6916002452,7,10.6707317073,-175,-0.4268292683,-618,37.6829268293,-81,0.352173913,60,0.2608695652,89,-0.4341463415
5506425,18164.0625,-7136,4.3752299203,-13520,-8.2893930104,-13264,8.1324340895,-315,23.1097560976,-379,19.2073170732,-76,4.6341463415,-83,0.3608695652,57,0.247826087,90,-0.4390243902
5507065,18183.59375,-6704,4.1103617413,-12016,-7.3672593501,-12560,7.700797057,-315,23.1097560976,-379,19.2073170732,-76,4.6341463415,-83,0.3608695652,58,0.252173913,91,-0.443902439
5507705,18203.125,-6176,3.7866339669,-11472,-7.0337216432,-12048,7.3868792152,-115,26.2804878049,-431,7.012195122,693,-42.256097561,-80,0.347826087,63,0.2739130435,91,-0.443902439
5508345,18222.65625,-5904,3.6198651134,-12336,-7.5634580012,-11696,7.171060699,18,19.1463414634,-314,-1.0975609756,1529,-93.2317073171,-78,0.3391304348,59,0.2565217391,92,-0.4487804878
5508985,18242.1875,-5680,3.4825260576,-13440,-8.2403433476,-11536,7.0729613734,18,19.1463414634,-314,-1.0975609756,1529,-93.2317073171,-76,0.3304347826,57,0.247826087,92,-0.4487804878
5509625,18261.71875,-5408,3.3157572042,-14416,-8.8387492336,-11680,7.1612507664,-345,16.3414634146,-268,21.0365853659,1948,-118.7804878049,-71,0.3086956522,57,0.247826087,94,-0.4585365854
5510265,18281.25,-4560,2.7958307787,-15184,-9.3096259963,-12624,7.7400367872,-345,16.3414634146,-268,21.0365853659,1948,-118.7804878049,-66,0.2869565217,54,0.2347826087,93,-0.4536585366
5510905,18300.78125,-3968,2.4328632741,-15680,-9.6137339056,-13184,8.0833844267,-528,22.1341463415,-363,32.1951219512,2165,-132.012195122,-61,0.2652173913,54,0.2347826087,95,-0.4634146341
5511545,18320.3125,-3648,2.2366646229,-16160,-9.9080318823,-14576,8.9368485592,-202,24.6951219512,-405,12.3170731707,2343,-142.8658536585,-60,0.2608695652,59,0.2565217391,95,-0.4634146341
5512185,18339.84375,-3680,2.256284488,-16336,-10.0159411404,-16320,10.0061312078,-202,24.6951219512,-405,12.3170731707,2343,-142.8658536585,-58,0.252173913,53,0.2304347826,96,-0.4682926829
5512825,18359.375,-4544,2.7860208461,-16384,-10.0453709381,-17056,10.4573881055,521,35.0609756098,-575,-31.7682926829,2528,-154.1463414634,-52,0.2260869565,49,0.2130434783,97,-0.4731707317
5513465,18378.90625,-6656,4.0809319436,-16432,-10.0748007357,-17328,10.6241569589,812,43.2317073171,-709,-49.512195122,2845,-173.4756097561,-46,0.2,52,0.2260869565,98,-0.4780487805
5514105,18398.4375,-8464,5.1894543225,-17232,-10.5652973636,-17840,10.9380748007,812,43.2317073171,-709,-49.512195122,2845,-173.4756097561,-39,0.1695652174,47,0.2043478261,100,-0.487804878
5514745,18417.96875,-8752,5.3660331085,-17904,-10.977314531,-18192,11.153893317,185,54.2073170732,-889,-11.2804878049,3091,-188.4756097561,-34,0.147826087,42,0.1826086957,100,-0.487804878
5515385,18437.5,-7536,4.6204782342,-18080,-11.0852237891,-18592,11.3991416309,185,54.2073170732,-889,-11.2804878049,3091,-188.4756097561,-29,0.1260869565,41,0.1782608696,102,-0.4975609756
5516025,18457.03125,-7040,4.316370325,-18128,-11.1146535868,-18656,11.4383813611,23,67.1951219512,-1102,-1.4024390244,3322,-202.5609756098,-23,0.1,36,0.1565217391,102,-0.4975609756
5516665,18476.5625,-6512,3.9926425506,-17744,-10.8792152054,-18336,11.24218271,444,73.5365853659,-1206,-27.0731707317,3697,-225.4268292683,-18,0.0782608696,32,0.1391304348,104,-0.5073170732
5517305,18496.09375,-6912,4.2378908645,-17136,-10.5064377682,-18032,11.0557939914,444,73.5365853659,-1206,-27.0731707317,3697,-225.4268292683,-11,0.047826087,23,0.1,107,-0.5219512195
5517945,18515.625,-7472,4.581238504,-16688,-10.2317596567,-18752,11.4972409565,338,76.8292682927,-1260,-20.6097560976,3814,-232.5609756098,-4,0.0173913043,20,0.0869565217,105,-0.512195122
5518585,18535.15625,-7152,4.3850398529,-16144,-9.8982219497,-19600,12.017167382,338,76.8292682927,-1260,-20.6097560976,3814,-232.5609756098,-1,0.0043478261,14,0.0608695652,108,-0.5268292683
5519225,18554.6875,-5920,3.629675046,-15536,-9.5254445126,-19696,12.0760269773,16,91.5243902439,-1501,-0.9756097561,3859,-235.3048780488,7,-0.0304347826,2,0.0086956522,110,-0.5365853659
5519865,18574.21875,-5056,3.0999386879,-14528,-8.9074187615,-18784,11.5168608216,-117,108.5975609756,-1781,7.1341463415,3917,-238.8414634146,7,-0.0304347826,-6,-0.0260869565,112,-0.5463414634
5520505,18593.75,-4544,2.7860208461,-13200,-8.0931943593,-17328,10.6241569589,-117,108.5975609756,-1781,7.1341463415,3917,-238.8414634146,12,-0.052173913,-13,-0.0565217391,112,-0.5463414634
5521145,18613.28125,-3728,2.2857142857,-12112,-7.4261189454,-16064,9.8491722869,-529,121.1585365854,-1987,32.256097561,3760,-229.2682926829,13,-0.0565217391,-22,-0.0956521739,113,-0.5512195122
5521785,18632.8125,-2400,1.4714898835,-10672,-6.5432250153,-15200,9.3194359289,-878,133.5365853659,-2190,53.5365853659,3531,-215.3048780488,14,-0.0608695652,-35,-0.152173913,116,-0.5658536585
5522425,18652.34375,-688,0.4218270999,-9040,-5.5426118945,-13824,8.475781729,-878,133.5365853659,-2190,53.5365853659,3531,-215.3048780488,12,-0.052173913,-40,-0.1739130435,118,-0.5756097561
5523065,18671.875,912,-0.5591661557,-7536,-4.6204782342,-12576,7.7106069896,-872,135.6097560976,-2224,53.1707317073,3373,-205.6707317073,13,-0.0565217391,-54,-0.2347826087,120,-0.5853658537
5523705,18691.40625,1904,-1.1673819742,-6064,-3.717964439,-11616,7.1220110362,-872,135.6097560976,-2224,53.1707317073,3373,-205.6707317073,14,-0.0608695652,-61,-0.2652173913,121,-0.5902439024
5524345,18710.9375,2480,-1.5205395463,-4768,-2.9233599019,-10896,6.6805640711,-545,129.2682926829,-2120,33.2317073171,3329,-202.987804878,11,-0.047826087,-74,-0.3217391304,121,-0.5902439024
5524985,18730.46875,2592,-1.5892090742,-3408,-2.0895156346,-10752,6.5922746781,-144,123.9024390244,-2032,8.7804878049,3256,-198.5365853659,9,-0.0391304348,-75,-0.3260869565,120,-0.5853658537
5525625,18750,3168,-1.9423666462,-1744,-1.0692826487,-10368,6.3568362968,-144,123.9024390244,-2032,8.7804878049,3256,-198.5365853659,4,-0.0173913043,-85,-0.3695652174,118,-0.5756097561
5526265,18769.53125,3728,-2.2857142857,-112,-0.0686695279,-9968,6.1115879828,229,115.7926829268,-1899,-13.9634146341,3135,-191.1585365854,5,-0.0217391304,-94,-0.4086956522,117,-0.5707317073
5526905,18789.0625,3344,-2.0502759044,1392,0.8534641324,-9632,5.9055793991,229,115.7926829268,-1899,-13.9634146341,3135,-191.1585365854,-3,0.0130434783,-98,-0.4260869565,112,-0.5463414634
5527545,18808.59375,2288,-1.4028203556,2592,1.5892090742,-9632,5.9055793991,434,103.7195121951,-1701,-26.4634146341,2892,-176.3414634146,-3,0.0130434783,-103,-0.447826087,112,-0.5463414634
5528185,18828.125,1248,-0.7651747394,3456,2.1189454323,-9312,5.709380748,-368,100.487804878,-1648,22.4390243902,2447,-149.2073170732,-9,0.0391304348,-113,-0.4913043478,108,-0.5268292683
5528825,18847.65625,1392,-0.8534641324,4400,2.6977314531,-8240,5.0521152667,-368,100.487804878,-1648,22.4390243902,2447,-149.2073170732,-10,0.0434782609,-119,-0.5173913043,107,-0.5219512195
5529465,18867.1875,2624,-1.6088289393,5680,3.4825260576,-6976,4.2771305947,-1429,101.2195121951,-1660,87.1341463415,1905,-116.1585365854,-16,0.0695652174,-119,-0.5173913043,106,-0.5170731707
5530105,18886.71875,4336,-2.6584917229,6944,4.2575107296,-6624,4.0613120785,-1429,101.2195121951,-1660,87.1341463415,1905,-116.1585365854,-19,0.0826086957,-124,-0.5391304348,104,-0.5073170732
5530745,18906.25,6032,-3.6983445739,8128,4.9834457388,-5952,3.6492949111,-1539,96.3414634146,-1580,93.8414634146,1475,-89.9390243902,-26,0.1130434783,-128,-0.5565217391,103,-0.5024390244
5531385,18925.78125,7376,-4.5223789086,9056,5.5524218271,-5552,3.4040465972,-740,83.6585365854,-1372,45.1219512195,1368,-83.4146341463,-26,0.1130434783,-130,-0.5652173913,102,-0.4975609756
5532025,18945.3125,8208,-5.0324954016,9984,6.1213979154,-5664,3.4727161251,-740,83.6585365854,-1372,45.1219512195,1368,-83.4146341463,-31,0.1347826087,-134,-0.5826086957,99,-0.4829268293
5532665,18964.84375,8096,-4.9638258737,10816,6.6315144083,-5632,3.45309626,385,66.0975609756,-1084,-23.4756097561,1384,-84.3902439024,-32,0.1391304348,-134,-0.5826086957,98,-0.4780487805
5533305,18984.375,7136,-4.3752299203,11120,6.8179031269,-5584,3.4236664623,777,50.3658536585,-826,-47.3780487805,1331,-81.1585365854,-35,0.152173913,-136,-0.5913043478,93,-0.4536585366
5533945,19003.90625,7008,-4.2967504598,11264,6.9061925199,-5648,3.4629061925,777,50.3658536585,-826,-47.3780487805,1331,-81.1585365854,-40,0.1739130435,-137,-0.5956521739,91,-0.443902439
5534585,19023.4375,7792,-4.7774371551,11968,7.3378295524,-5664,3.4727161251,639,42.3170731707,-694,-38.9634146341,1045,-63.7195121951,-42,0.1826086957,-141,-0.6130434783,90,-0.4390243902
5535225,19042.96875,8000,-4.9049662784,12768,7.8283261803,-5200,3.1882280809,639,42.3170731707,-694,-38.9634146341,1045,-63.7195121951,-41,0.1782608696,-139,-0.6043478261,89,-0.4341463415
5535865,19062.5,7392,-4.5321888412,12816,7.8577559779,-5328,3.2667075414,618,31.8902439024,-523,-37.6829268293,772,-47.0731707317,-44,0.1913043478,-143,-0.6217391304,87,-0.4243902439
5536505,19082.03125,7088,-4.3458001226,12736,7.8087063151,-5440,3.3353770693,248,25.6707317073,-421,-15.1219512195,515,-31.4024390244,-46,0.2,-137,-0.5956521739,85,-0.4146341463
5537145,19101.5625,7488,-4.5910484365,12928,7.9264255058,-5152,3.1587982833,248,25.6707317073,-421,-15.1219512195,515,-31.4024390244,-47,0.2043478261,-143,-0.6217391304,84,-0.4097560976
5537785,19121.09375,7888,-4.8362967505,13296,8.1520539546,-5152,3.1587982833,59,16.7073170732,-274,-3.5975609756,321,-19.5731707317,-46,0.2,-145,-0.6304347826,84,-0.4097560976
5538425,19140.625,8320,-5.1011649295,13408,8.2207234825,-5376,3.2961373391,59,16.7073170732,-274,-3.5975609756,321,-19.5731707317,-46,0.2,-145,-0.6304347826,83,-0.4048780488
5539065,19160.15625,8224,-5.0423053342,13456,8.2501532802,-5888,3.6100551809,184,6.4634146341,-106,-11.2195121951,197,-12.012195122,-47,0.2043478261,-141,-0.6130434783,85,-0.4146341463
5539705,19179.6875,7744,-4.7480073574,13568,8.3188228081,-6016,3.6885346413,198,-1.7682926829,29,-12.0731707317,77,-4.6951219512,-49,0.2130434783,-141,-0.6130434783,83,-0.4048780488
5540345,19199.21875,7632,-4.6793378296,13216,8.1030042918,-6048,3.7081545064,198,-1.7682926829,29,-12.0731707317,77,-4.6951219512,-47,0.2043478261,-146,-0.6347826087,86,-0.4195121951
5540985,19218.75,7712,-4.7283874923,13200,8.0931943593,-6416,3.9337829552,24,-7.1341463415,117,-1.4634146341,-145,8.8414634146,-47,0.2043478261,-141,-0.6130434783,83,-0.4048780488
5541625,19238.28125,7872,-4.8264868179,13136,8.0539546291,-6736,4.1299816064,23,-12.256097561,201,-1.4024390244,-348,21.2195121951,-48,0.2086956522,-142,-0.6173913043,87,-0.4243902439
5542265,19257.8125,7232,-4.4340895156,12816,7.8577559779,-7136,4.3752299203,23,-12.256097561,201,-1.4024390244,-348,21.2195121951,-46,0.2,-141,-0.6130434783,87,-0.4243902439
5542905,19277.34375,6960,-4.2673206622,12672,7.7694665849,-7152,4.3850398529,-35,-15.6707317073,257,2.1341463415,-547,33.3536585366,-46,0.2,-141,-0.6130434783,87,-0.4243902439
5543545,19296.875,7088,-4.3458001226,12448,7.6321275291,-6848,4.1986511343,-35,-15.6707317073,257,2.1341463415,-547,33.3536585366,-43,0.1869565217,-138,-0.6,88,-0.4292682927
5544185,19316.40625,6944,-4.2575107296,12400,7.6026977315,-6752,4.1397915389,-136,-20,328,8.2926829268,-824,50.243902439,-41,0.1782608696,-140,-0.6086956522,87,-0.4243902439
5544825,19335.9375,7024,-4.3065603924,12176,7.4653586757,-7136,4.3752299203,-44,-26.5853658537,436,2.6829268293,-1084,66.0975609756,-39,0.1695652174,-142,-0.6173913043,90,-0.4390243902
5545465,19355.46875,7008,-4.2967504598,11856,7.2691600245,-6832,4.1888412017,-44,-26.5853658537,436,2.6829268293,-1084,66.0975609756,-36,0.1565217391,-141,-0.6130434783,92,-0.4487804878
5546105,19375,6848,-4.1986511343,11456,7.0239117106,-6160,3.7768240343,12,-34.0853658537,559,-0.7317073171,-1356,82.6829268293,-36,0.1565217391,-137,-0.5956521739,91,-0.443902439
5546745,19394.53125,6896,-4.2280809319,10768,6.6020846107,-6192,3.7964438994,12,-34.0853658537,559,-0.7317073171,-1356,82.6829268293,-29,0.1260869565,-134,-0.5826086957,93,-0.4536585366
5547385,19414.0625,6608,-4.0515021459,10096,6.1900674433,-6656,4.0809319436,116,-46.0365853659,755,-7.0731707317,-1675,102.1341463415,-28,0.1217391304,-135,-0.5869565217,95,-0.4634146341
5548025,19433.59375,6000,-3.6787247088,9600,5.885959534,-6432,3.9435928878,209,-54.5731707317,895,-12.743902439,-1923,117.256097561,-24,0.1043478261,-133,-0.5782608696,98,-0.4780487805
5548665,19453.125,5664,-3.4727161251,8640,5.2973635806,-6448,3.9534028204,209,-54.5731707317,895,-12.743902439,-1923,117.256097561,-23,0.1,-126,-0.547826087,97,-0.4731707317
5549305,19472.65625,5568,-3.4138565297,8064,4.9442060086,-6624,4.0613120785,208,-66.7682926829,1095,-12.6829268293,-2187,133.3536585366,-13,0.0565217391,-122,-0.5304347826,100,-0.487804878
5549945,19492.1875,4816,-2.9527896996,7472,4.581238504,-7024,4.3065603924,344,-80.9756097561,1328,-20.9756097561,-2354,143.5365853659,-14,0.0608695652,-122,-0.5304347826,102,-0.4975609756
5550585,19511.71875,3040,-1.8638871858,6320,3.8749233599,-8368,5.1305947272,344,-80.9756097561,1328,-20.9756097561,-2354,143.5365853659,-8,0.0347826087,-116,-0.5043478261,105,-0.512195122
5551225,19531.25,1904,-1.1673819742,5552,3.4040465972,-8768,5.3758430411,-139,-80.243902439,1316,8.4756097561,-2520,153.6585365854,-3,0.0130434783,-111,-0.4826086957,105,-0.512195122
5551865,19550.78125,1616,-0.9908031882,5424,3.3255671367,-9200,5.6407112201,-139,-80.243902439,1316,8.4756097561,-2520,153.6585365854,2,-0.0086956522,-105,-0.4565217391,108,-0.5268292683
5552505,19570.3125,1840,-1.128142244,5200,3.1882280809,-10320,6.3274064991,-748,-88.5975609756,1453,45.6097560976,-2698,164.512195122,2,-0.0086956522,-102,-0.4434782609,111,-0.5414634146
5553145,19589.84375,2464,-1.5107296137,4192,2.5702023299,-11168,6.8473329246,-629,-97.987804878,1607,38.3536585366,-2597,158.3536585366,6,-0.0260869565,-89,-0.3869565217,115,-0.5609756098
5553785,19609.375,2080,-1.2752912324,2768,1.6971183323,-11904,7.2985898222,-629,-97.987804878,1607,38.3536585366,-2597,158.3536585366,8,-0.0347826087,-90,-0.3913043478,116,-0.5658536585
5554425,19628.90625,1280,-0.7847946045,1504,0.9221336603,-13008,7.9754751686,-254,-106.1585365854,1741,15.487804878,-2625,160.0609756098,7,-0.0304347826,-80,-0.347826087,119,-0.5804878049
5555065,19648.4375,80,-0.0490496628,576,0.353157572,-13920,8.5346413243,-254,-106.1585365854,1741,15.487804878,-2625,160.0609756098,9,-0.0391304348,-72,-0.3130434783,121,-0.5902439024
5555705,19667.96875,-816,0.5003065604,144,0.088289393,-14608,8.9564684243,-198,-103.3536585366,1695,12.0731707317,-2720,165.8536585366,11,-0.047826087,-63,-0.2739130435,123,-0.6
5556345,19687.5,-864,0.5297363581,-752,-0.4610668302,-15264,9.3586756591,-344,-98.5975609756,1617,20.9756097561,-2864,174.6341463415,9,-0.0391304348,-58,-0.252173913,124,-0.6048780488
5556985,19707.03125,-992,0.6082158185,-2000,-1.2262415696,-15232,9.339055794,-344,-98.5975609756,1617,20.9756097561,-2864,174.6341463415,10,-0.0434782609,-47,-0.2043478261,125,-0.6097560976
5557625,19726.5625,-1600,0.9809932557,-3408,-2.0895156346,-16016,9.8197424893,-201,-98.5365853659,1616,12.256097561,-2998,182.8048780488,10,-0.0434782609,-45,-0.1956521739,125,-0.6097560976
5558265,19746.09375,-2032,1.2458614347,-4928,-3.0214592275,-16448,10.0846106683,-201,-98.5365853659,1616,12.256097561,-2998,182.8048780488,9,-0.0391304348,-33,-0.1434782609,124,-0.6048780488
5558905,19765.625,-2928,1.7952176579,-6224,-3.8160637646,-16336,10.0159411404,90,-91.7073170732,1504,-5.487804878,-2979,181.6463414634,10,-0.0434782609,-33,-0.1434782609,125,-0.6097560976
5559545,19785.15625,-4080,2.501532802,-7328,-4.492949111,-16464,10.0944206009,232,-91.5853658537,1502,-14.1463414634,-2809,171.2804878049,8,-0.0347826087,-17,-0.0739130435,121,-0.5902439024
5560185,19804.6875,-5168,3.1686082158,-8032,-4.9245861435,-16464,10.0944206009,232,-91.5853658537,1502,-14.1463414634,-2809,171.2804878049,5,-0.0217391304,-13,-0.0565217391,120,-0.5853658537
5560825,19824.21875,-6272,3.8454935622,-8592,-5.267933783,-17024,10.4377682403,43,-87.743902439,1439,-2.6219512195,-2698,164.512195122,4,-0.0173913043,-6,-0.0260869565,119,-0.5804878049
5561465,19843.75,-6032,3.6983445739,-8960,-5.4935622318,-16576,10.1630901288,-301,-81.9512195122,1344,18.3536585366,-2582,157.4390243902,-1,0.0043478261,-4,-0.0173913043,120,-0.5853658537
5562105,19863.28125,-5296,3.2470876763,-9712,-5.9546290619,-16304,9.9963212753,-301,-81.9512195122,1344,18.3536585366,-2582,157.4390243902,-1,0.0043478261,5,0.0217391304,120,-0.5853658537
5562745,19882.8125,-5152,3.1587982833,-10464,-6.4156958921,-16656,10.2121397915,-363,-83.9024390244,1376,22.1341463415,-2511,153.1097560976,-4,0.0173913043,9,0.0391304348,118,-0.5756097561
5563385,19902.34375,-5360,3.2863274065,-11296,-6.925812385,-17536,10.7516860822,-363,-83.9024390244,1376,22.1341463415,-2511,153.1097560976,-7,0.0304347826,17,0.0739130435,116,-0.5658536585
5564025,19921.875,-4736,2.9037400368,-11952,-7.3280196199,-17296,10.6045370938,-319,-73.5365853659,1206,19.4512195122,-2568,156.5853658537,-12,0.052173913,17,0.0739130435,116,-0.5658536585
5564665,19941.40625,-3632,2.2268546904,-12784,-7.8381361128,-16816,10.3102391171,-118,-69.6951219512,1143,7.1951219512,-2616,159.512195122,-17,0.0739130435,24,0.1043478261,115,-0.5609756098
5565305,19960.9375,-2992,1.8344573881,-14384,-8.8191293685,-17552,10.7614960147,-118,-69.6951219512,1143,7.1951219512,-2616,159.512195122,-18,0.0782608696,26,0.1130434783,113,-0.5512195122
5565945,19980.46875,-3632,2.2268546904,-15600,-9.5646842428,-18688,11.4580012262,898,-59.8780487805,982,-54.756097561,-2650,161.5853658537,-23,0.1,31,0.1347826087,108,-0.5268292683
5566585,20000,-4512,2.766400981,-15872,-9.7314530963,-17696,10.8497854077,898,-59.8780487805,982,-54.756097561,-2650,161.5853658537,-25,0.1086956522,37,0.1608695652,108,-0.5268292683
5567225,20019.53125,-5120,3.1391784181,-15952,-9.780502759,-16832,10.3200490497,1579,-40.4268292683,663,-96.2804878049,-2949,179.8170731707,-32,0.1391304348,40,0.1739130435,103,-0.5024390244
5567865,20039.0625,-5664,3.4727161251,-15792,-9.6824034335,-16992,10.4181483752,1724,-25.9756097561,426,-105.1219512195,-3119,190.1829268293,-32,0.1391304348,40,0.1739130435,101,-0.4926829268
5568505,20058.59375,-6576,4.0318822808,-15216,-9.3292458614,-17056,10.4573881055,1724,-25.9756097561,426,-105.1219512195,-3119,190.1829268293,-38,0.1652173913,45,0.1956521739,97,-0.4731707317
5569145,20078.125,-7840,4.8068669528,-14368,-8.8093194359,-16304,9.9963212753,1489,-2.5609756098,42,-90.7926829268,-3096,188.7804878049,-43,0.1869565217,52,0.2260869565,97,-0.4731707317
5569785,20097.65625,-8400,5.1502145923,-13056,-8.0049049663,-15504,9.5058246475,330,16.0365853659,-263,-20.1219512195,-2980,181.7073170732,-50,0.2173913043,54,0.2347826087,96,-0.4682926829
5570425,20117.1875,-7744,4.7480073574,-11792,-7.2299202943,-15600,9.5646842428,330,16.0365853659,-263,-20.1219512195,-2980,181.7073170732,-55,0.2391304348,58,0.252173913,94,-0.4585365854
5571065,20136.71875,-5824,3.5708154506,-10672,-6.5432250153,-15792,9.6824034335,-602,23.7195121951,-389,36.7073170732,-2747,167.5,-60,0.2608695652,53,0.2304347826,98,-0.4780487805
5571705,20156.25,-3840,2.3543838136,-10288,-6.307786634,-15024,9.2115266708,-602,23.7195121951,-389,36.7073170732,-2747,167.5,-64,0.2782608696,56,0.2434782609,97,-0.4731707317
5572345,20175.78125,-2800,1.7167381974,-10576,-6.48436542,-13824,8.475781729,-374,17.5,-287,22.8048780488,-2360,143.9024390244,-72,0.3130434783,58,0.252173913,96,-0.4682926829
5572985,20195.3125,-2848,1.7461679951,-10848,-6.6511342735,-12768,7.8283261803,132,11.5243902439,-189,-8.0487804878,-2153,131.2804878049,-74,0.3217391304,61,0.2652173913,96,-0.4682926829
5573625,20214.84375,-3376,2.0698957695,-11232,-6.8865726548,-12960,7.9460453709,132,11.5243902439,-189,-8.0487804878,-2153,131.2804878049,-81,0.352173913,59,0.2565217391,98,-0.4780487805
5574265,20234.375,-3760,2.3053341508,-11376,-6.9748620478,-13472,8.2599632128,448,15.3658536585,-252,-27.3170731707,-1853,112.987804878,-80,0.347826087,60,0.2608695652,97,-0.4731707317
5574905,20253.90625,-4064,2.4917228694,-10928,-6.7001839362,-13248,8.122624157,448,15.3658536585,-252,-27.3170731707,-1853,112.987804878,-86,0.3739130435,61,0.2652173913,97,-0.4731707317
5575545,20273.4375,-4704,2.8841201717,-10480,-6.4255058246,-13216,8.1030042918,720,19.5731707317,-321,-43.9024390244,-1413,86.1585365854,-87,0.3782608696,62,0.2695652174,97,-0.4731707317
5576185,20292.96875,-5696,3.4923359902,-10816,-6.6315144083,-13408,8.2207234825,668,16.4634146341,-270,-40.7317073171,-1002,61.0975609756,-89,0.3869565217,56,0.2434782609,99,-0.4829268293
5576825,20312.5,-6352,3.894543225,-10880,-6.6707541386,-13424,8.2305334151,668,16.4634146341,-270,-40.7317073171,-1002,61.0975609756,-92,0.4,59,0.2565217391,99,-0.4829268293
5577465,20332.03125,-5968,3.6591048437,-10432,-6.396076027,-13248,8.122624157,213,15,-246,-12.987804878,-734,44.756097561,-90,0.3913043478,59,0.2565217391,97,-0.4731707317
5578105,20351.5625,-5344,3.2765174739,-9904,-6.0723482526,-12800,7.8479460454,199,10,-164,-12.1341463415,-280,17.0731707317,-91,0.3956521739,55,0.2391304348,101,-0.4926829268
5578745,20371.09375,-5248,3.2176578786,-9520,-5.8369098712,-12352,7.5732679338,199,10,-164,-12.1341463415,-280,17.0731707317,-90,0.3913043478,57,0.247826087,99,-0.4829268293
5579385,20390.625,-5712,3.5021459227,-9424,-5.7780502759,-12192,7.4751686082,359,2.9268292683,-48,-21.8902439024,251,-15.3048780488,-93,0.4043478261,61,0.2652173913,99,-0.4829268293
5580025,20410.15625,-5936,3.6394849785,-9488,-5.8172900061,-12000,7.3574494175,359,2.9268292683,-48,-21.8902439024,251,-15.3048780488,-90,0.3913043478,56,0.2434782609,98,-0.4780487805
5580665,20429.6875,-6000,3.6787247088,-9904,-6.0723482526,-11824,7.2495401594,52,-2.9268292683,48,-3.1707317073,699,-42.6219512195,-87,0.3782608696,58,0.252173913,99,-0.4829268293
5581305,20449.21875,-6096,3.7375843041,-10048,-6.1606376456,-11616,7.1220110362,-165,-9.4512195122,155,10.0609756098,1140,-69.512195122,-88,0.3826086957,56,0.2434782609,99,-0.4829268293
5581945,20468.75,-6336,3.8847332925,-10032,-6.1508277131,-11856,7.2691600245,-165,-9.4512195122,155,10.0609756098,1140,-69.512195122,-83,0.3608695652,55,0.2391304348,99,-0.4829268293
5582585,20488.28125,-6496,3.982832618,-10448,-6.4058859595,-12608,7.7302268547,-200,-18.1707317073,298,12.1951219512,1651,-100.6707317073,-83,0.3608695652,61,0.2652173913,99,-0.4829268293
5583225,20507.8125,-7248,4.4438994482,-11616,-7.1220110362,-13696,8.3973022685,-200,-18.1707317073,298,12.1951219512,1651,-100.6707317073,-79,0.3434782609,60,0.2608695652,98,-0.4780487805
