Shimmer,Shimmer,Shimmer,Shimmer,Shimmer,Shimmer,Shimmer,Shimmer,Shimmer,Shimmer,Shimmer,Shimmer,Shimmer,Shimmer,Shimmer,Shimmer,Shimmer,Shimmer,Shimmer,Shimmer
Timestamp,Timestamp,Wide Range Accelerometer X,Wide Range Accelerometer X,Wide Range Accelerometer Y,Wide Range Accelerometer Y,Wide Range Accelerometer Z,Wide Range Accelerometer Z,Gyroscope X,Gyroscope X,Gyroscope Y,Gyroscope Y,Gyroscope Z,Gyroscope Z,Magnetometer X,Magnetometer X,Magnetometer Y,Magnetometer Y,Magnetometer Z,Magnetometer Z
RAW,CAL,RAW,CAL,RAW,CAL,RAW,CAL,RAW,CAL,RAW,CAL,RAW,CAL,RAW,CAL,RAW,CAL,RAW,CAL
no units,mSecs,no units,m/(sec^2),no units,m/(sec^2),no units,m/(sec^2),no units,deg/sec,no units,deg/sec,no units,deg/sec,no units,local,no units,local,no units,local
1542265,10664.0625,-3600,2.2072348253,1136,0.6965052115,-15696,9.6235438381,-5,3.4146341463,-56,0.3048780488,-26,1.5853658537,1,-0.0043478261,-46,-0.2,132,-0.643902439
1542905,10683.59375,-3584,2.1974248927,1104,0.6768853464,-15664,9.603923973,13,3.4756097561,-57,-0.7926829268,-25,1.5243902439,3,-0.0130434783,-47,-0.2043478261,132,-0.643902439
1543545,10703.125,-3648,2.2366646229,1088,0.6670754139,-15584,9.5548743102,13,3.4756097561,-57,-0.7926829268,-25,1.5243902439,2,-0.0086956522,-47,-0.2043478261,134,-0.6536585366
1544185,10722.65625,-3632,2.2268546904,1024,0.6278356836,-15568,9.5450643777,23,3.2926829268,-54,-1.4024390244,-21,1.2804878049,3,-0.0130434783,-47,-0.2043478261,134,-0.6536585366
1544825,10742.1875,-3648,2.2366646229,944,0.5787860208,-15584,9.5548743102,14,2.743902439,-45,-0.8536585366,1,-0.0609756098,1,-0.0043478261,-43,-0.1869565217,132,-0.643902439
1545465,10761.71875,-3616,2.2170447578,896,0.5493562232,-15680,9.6137339056,14,2.743902439,-45,-0.8536585366,1,-0.0609756098,3,-0.0130434783,-46,-0.2,134,-0.6536585366
1546105,10781.25,-3568,2.1876149601,768,0.4708767627,-15632,9.5843041079,27,2.743902439,-45,-1.6463414634,7,-0.4268292683,1,-0.0043478261,-47,-0.2043478261,133,-0.6487804878
1546745,10800.78125,-3600,2.2072348253,672,0.4120171674,-15552,9.5352544451,27,2.743902439,-45,-1.6463414634,7,-0.4268292683,2,-0.0086956522,-46,-0.2,133,-0.6487804878
1547385,10820.3125,-3680,2.256284488,736,0.4512568976,-15472,9.4862047823,12,3.4756097561,-57,-0.7317073171,-4,0.243902439,4,-0.0173913043,-45,-0.1956521739,131,-0.6390243902
1548025,10839.84375,-3776,2.3151440834,880,0.5395462906,-15408,9.4469650521,-33,3.4756097561,-57,2.012195122,-18,1.0975609756,5,-0.0217391304,-51,-0.2217391304,134,-0.6536585366
1548665,10859.375,-3696,2.2660944206,816,0.5003065604,-15488,9.4960147149,-33,3.4756097561,-57,2.012195122,-18,1.0975609756,1,-0.0043478261,-47,-0.2043478261,133,-0.6487804878
1549305,10878.90625,-3520,2.1581851625,880,0.5395462906,-15504,9.5058246475,-28,3.7804878049,-62,1.7073170732,-8,0.487804878,4,-0.0173913043,-48,-0.2086956522,134,-0.6536585366
1549945,10898.4375,-3504,2.1483752299,912,0.5591661557,-15552,9.5352544451,-28,3.7804878049,-62,1.7073170732,-8,0.487804878,2,-0.0086956522,-48,-0.2086956522,132,-0.643902439
1550585,10917.96875,-3648,2.2366646229,960,0.5885959534,-15488,9.4960147149,28,3.2926829268,-54,-1.7073170732,-3,0.1829268293,2,-0.0086956522,-47,-0.2043478261,132,-0.643902439
1551225,10937.5,-3808,2.3347639485,1008,0.6180257511,-15472,9.4862047823,31,3.4146341463,-56,-1.8902439024,-14,0.8536585366,4,-0.0173913043,-50,-0.2173913043,134,-0.6536585366
1551865,10957.03125,-3840,2.3543838136,1168,0.7161250766,-15536,9.5254445126,31,3.4146341463,-56,-1.8902439024,-14,0.8536585366,-1,0.0043478261,-45,-0.1956521739,132,-0.643902439
1552505,10976.5625,-3664,2.2464745555,1040,0.6376456162,-15632,9.5843041079,-4,3.0487804878,-50,0.243902439,4,-0.243902439,3,-0.0130434783,-50,-0.2173913043,132,-0.643902439
1553145,10996.09375,-3744,2.2955242183,1056,0.6474555487,-15536,9.5254445126,38,2.4390243902,-40,-2.3170731707,19,-1.1585365854,4,-0.0173913043,-46,-0.2,134,-0.6536585366
1553785,11015.625,-3792,2.3249540159,944,0.5787860208,-15568,9.5450643777,38,2.4390243902,-40,-2.3170731707,19,-1.1585365854,4,-0.0173913043,-47,-0.2043478261,132,-0.643902439
1554425,11035.15625,-3840,2.3543838136,768,0.4708767627,-15616,9.5744941754,3,2.6219512195,-43,-0.1829268293,22,-1.3414634146,4,-0.0173913043,-52,-0.2260869565,133,-0.6487804878
1555065,11054.6875,-3728,2.2857142857,832,0.5101164929,-15648,9.5941140405,3,2.6219512195,-43,-0.1829268293,22,-1.3414634146,2,-0.0086956522,-47,-0.2043478261,133,-0.6487804878
1555705,11074.21875,-3680,2.256284488,880,0.5395462906,-15664,9.603923973,-24,2.9268292683,-48,1.4634146341,16,-0.9756097561,3,-0.0130434783,-47,-0.2043478261,134,-0.6536585366
1556345,11093.75,-3648,2.2366646229,944,0.5787860208,-15680,9.6137339056,-11,3.6585365854,-60,0.6707317073,-2,0.1219512195,4,-0.0173913043,-49,-0.2130434783,132,-0.643902439
1556985,11113.28125,-3712,2.2759043532,864,0.5297363581,-15616,9.5744941754,-11,3.6585365854,-60,0.6707317073,-2,0.1219512195,3,-0.0130434783,-44,-0.1913043478,132,-0.643902439
1557625,11132.8125,-3648,2.2366646229,912,0.5591661557,-15680,9.6137339056,-32,4.512195122,-74,1.9512195122,-21,1.2804878049,2,-0.0086956522,-50,-0.2173913043,132,-0.643902439
1558265,11152.34375,-3440,2.1091354997,960,0.5885959534,-15632,9.5843041079,-32,4.512195122,-74,1.9512195122,-21,1.2804878049,1,-0.0043478261,-47,-0.2043478261,133,-0.6487804878
1558905,11171.875,-3520,2.1581851625,992,0.6082158185,-15552,9.5352544451,-12,4.4512195122,-73,0.7317073171,-13,0.7926829268,3,-0.0130434783,-45,-0.1956521739,131,-0.6390243902
1559545,11191.40625,-3616,2.2170447578,1024,0.6278356836,-15440,9.4665849172,7,3.8414634146,-63,-0.4268292683,-5,0.3048780488,4,-0.0173913043,-51,-0.2217391304,134,-0.6536585366
1560185,11210.9375,-3648,2.2366646229,1056,0.6474555487,-15488,9.4960147149,7,3.8414634146,-63,-0.4268292683,-5,0.3048780488,0,0,-47,-0.2043478261,133,-0.6487804878
1560825,11230.46875,-3536,2.167995095,1008,0.6180257511,-15456,9.4763948498,-13,3.2317073171,-53,0.7926829268,-7,0.4268292683,5,-0.0217391304,-48,-0.2086956522,133,-0.6487804878
1561465,11250,-3408,2.0895156346,1024,0.6278356836,-15536,9.5254445126,13,2.9268292683,-48,-0.7926829268,6,-0.3658536585,1,-0.0043478261,-46,-0.2,131,-0.6390243902
1562105,11269.53125,-3568,2.1876149601,1056,0.6474555487,-15504,9.5058246475,13,2.9268292683,-48,-0.7926829268,6,-0.3658536585,4,-0.0173913043,-47,-0.2043478261,133,-0.6487804878
1562745,11289.0625,-3696,2.2660944206,1024,0.6278356836,-15472,9.4862047823,-17,2.9268292683,-48,1.0365853659,-4,0.243902439,1,-0.0043478261,-44,-0.1913043478,132,-0.643902439
1563385,11308.59375,-3536,2.167995095,976,0.598405886,-15568,9.5450643777,-17,2.9268292683,-48,1.0365853659,-4,0.243902439,2,-0.0086956522,-45,-0.1956521739,132,-0.643902439
1564025,11328.125,-3424,2.0993255671,976,0.598405886,-15632,9.5843041079,-32,2.987804878,-49,1.9512195122,-10,0.6097560976,2,-0.0086956522,-49,-0.2130434783,131,-0.6390243902
1564665,11347.65625,-3424,2.0993255671,944,0.5787860208,-15664,9.603923973,12,2.8658536585,-47,-0.7317073171,0,0,4,-0.0173913043,-51,-0.2217391304,133,-0.6487804878
1565305,11367.1875,-3504,2.1483752299,992,0.6082158185,-15568,9.5450643777,12,2.8658536585,-47,-0.7317073171,0,0,3,-0.0130434783,-45,-0.1956521739,130,-0.6341463415
1565945,11386.71875,-3680,2.256284488,960,0.5885959534,-15504,9.5058246475,5,2.743902439,-45,-0.3048780488,0,0,2,-0.0086956522,-46,-0.2,134,-0.6536585366
1566585,11406.25,-3664,2.2464745555,960,0.5885959534,-15472,9.4862047823,5,2.743902439,-45,-0.3048780488,0,0,2,-0.0086956522,-50,-0.2173913043,132,-0.643902439
1567225,11425.78125,-3472,2.1287553648,896,0.5493562232,-15552,9.5352544451,-26,2.6219512195,-43,1.5853658537,-4,0.243902439,-1,0.0043478261,-47,-0.2043478261,134,-0.6536585366
1567865,11445.3125,-3504,2.1483752299,928,0.5689760883,-15680,9.6137339056,-10,2.8048780488,-46,0.6097560976,-13,0.7926829268,2,-0.0086956522,-50,-0.2173913043,133,-0.6487804878
1568505,11464.84375,-3616,2.2170447578,976,0.598405886,-15520,9.51563458,-10,2.8048780488,-46,0.6097560976,-13,0.7926829268,0,0,-48,-0.2086956522,134,-0.6536585366
1569145,11484.375,-3632,2.2268546904,1056,0.6474555487,-15488,9.4960147149,-10,2.5,-41,0.6097560976,-3,0.1829268293,-1,0.0043478261,-48,-0.2086956522,134,-0.6536585366
1569785,11503.90625,-3600,2.2072348253,1024,0.6278356836,-15600,9.5646842428,-11,2.743902439,-45,0.6707317073,-10,0.6097560976,2,-0.0086956522,-47,-0.2043478261,133,-0.6487804878
1570425,11523.4375,-3520,2.1581851625,1088,0.6670754139,-15504,9.5058246475,-11,2.743902439,-45,0.6707317073,-10,0.6097560976,2,-0.0086956522,-48,-0.2086956522,133,-0.6487804878
1571065,11542.96875,-3552,2.1778050276,976,0.598405886,-15504,9.5058246475,15,1.7073170732,-28,-0.9146341463,1,-0.0609756098,2,-0.0086956522,-49,-0.2130434783,134,-0.6536585366
1571705,11562.5,-3456,2.1189454323,960,0.5885959534,-15600,9.5646842428,15,1.7073170732,-28,-0.9146341463,1,-0.0609756098,3,-0.0130434783,-50,-0.2173913043,133,-0.6487804878
1572345,11582.03125,-3600,2.2072348253,944,0.5787860208,-15664,9.603923973,37,1.4634146341,-24,-2.256097561,9,-0.5487804878,3,-0.0130434783,-46,-0.2,134,-0.6536585366
1572985,11601.5625,-3632,2.2268546904,864,0.5297363581,-15680,9.6137339056,-8,2.6219512195,-43,0.487804878,8,-0.487804878,4,-0.0173913043,-51,-0.2217391304,133,-0.6487804878
1573625,11621.09375,-3616,2.2170447578,912,0.5591661557,-15760,9.6627835684,-8,2.6219512195,-43,0.487804878,8,-0.487804878,0,0,-43,-0.1869565217,133,-0.6487804878
1574265,11640.625,-3536,2.167995095,976,0.598405886,-15632,9.5843041079,-28,2.987804878,-49,1.7073170732,-8,0.487804878,4,-0.0173913043,-47,-0.2043478261,133,-0.6487804878
1574905,11660.15625,-3408,2.0895156346,912,0.5591661557,-15616,9.5744941754,-28,2.987804878,-49,1.7073170732,-8,0.487804878,3,-0.0130434783,-48,-0.2086956522,132,-0.643902439
1575545,11679.6875,-3536,2.167995095,912,0.5591661557,-15712,9.6333537707,8,2.9268292683,-48,-0.487804878,-9,0.5487804878,3,-0.0130434783,-49,-0.2130434783,133,-0.6487804878
1576185,11699.21875,-3616,2.2170447578,976,0.598405886,-15728,9.6431637032,-33,3.7195121951,-61,2.012195122,-18,1.0975609756,1,-0.0043478261,-43,-0.1869565217,131,-0.6390243902
1576825,11718.75,-3408,2.0895156346,864,0.5297363581,-15808,9.692213366,-33,3.7195121951,-61,2.012195122,-18,1.0975609756,3,-0.0130434783,-47,-0.2043478261,133,-0.6487804878
1577465,11738.28125,-3360,2.0600858369,816,0.5003065604,-15696,9.6235438381,4,3.4756097561,-57,-0.243902439,-16,0.9756097561,-1,0.0043478261,-46,-0.2,133,-0.6487804878
1578105,11757.8125,-3504,2.1483752299,1008,0.6180257511,-15632,9.5843041079,4,3.4756097561,-57,-0.243902439,-16,0.9756097561,2,-0.0086956522,-50,-0.2173913043,133,-0.6487804878
1578745,11777.34375,-3632,2.2268546904,1008,0.6180257511,-15584,9.5548743102,5,3.9634146341,-65,-0.3048780488,-28,1.7073170732,0,0,-46,-0.2,132,-0.643902439
1579385,11796.875,-3616,2.2170447578,912,0.5591661557,-15632,9.5843041079,-15,4.756097561,-78,0.9146341463,-37,2.256097561,2,-0.0086956522,-49,-0.2130434783,134,-0.6536585366
1580025,11816.40625,-3504,2.1483752299,848,0.5199264255,-15600,9.5646842428,-15,4.756097561,-78,0.9146341463,-37,2.256097561,2,-0.0086956522,-47,-0.2043478261,133,-0.6487804878
1580665,11835.9375,-3472,2.1287553648,976,0.598405886,-15456,9.4763948498,-3,4.8170731707,-79,0.1829268293,-47,2.8658536585,2,-0.0086956522,-46,-0.2,135,-0.6585365854
1581305,11855.46875,-3584,2.1974248927,992,0.6082158185,-15376,9.427345187,0,4.3292682927,-71,0,-43,2.6219512195,1,-0.0043478261,-46,-0.2,133,-0.6487804878
1581945,11875,-3728,2.2857142857,944,0.5787860208,-15344,9.4077253219,0,4.3292682927,-71,0,-43,2.6219512195,1,-0.0043478261,-51,-0.2217391304,135,-0.6585365854
1582585,11894.53125,-3632,2.2268546904,944,0.5787860208,-15440,9.4665849172,-21,3.6585365854,-60,1.2804878049,-25,1.5243902439,0,0,-46,-0.2,134,-0.6536585366
1583225,11914.0625,-3712,2.2759043532,1040,0.6376456162,-15424,9.4567749847,-21,3.6585365854,-60,1.2804878049,-25,1.5243902439,2,-0.0086956522,-47,-0.2043478261,134,-0.6536585366
1583865,11933.59375,-3744,2.2955242183,992,0.6082158185,-15440,9.4665849172,0,2.1951219512,-36,0,10,-0.6097560976,1,-0.0043478261,-44,-0.1913043478,132,-0.643902439
1584505,11953.125,-3776,2.3151440834,1008,0.6180257511,-15520,9.51563458,-21,2.1341463415,-35,1.2804878049,21,-1.2804878049,3,-0.0130434783,-44,-0.1913043478,132,-0.643902439
1585145,11972.65625,-3616,2.2170447578,912,0.5591661557,-15520,9.51563458,-21,2.1341463415,-35,1.2804878049,21,-1.2804878049,3,-0.0130434783,-50,-0.2173913043,134,-0.6536585366
1585785,11992.1875,-3584,2.1974248927,880,0.5395462906,-15552,9.5352544451,-4,2.1951219512,-36,0.243902439,8,-0.487804878,3,-0.0130434783,-48,-0.2086956522,134,-0.6536585366
1586425,12011.71875,-3520,2.1581851625,864,0.5297363581,-15520,9.51563458,-4,2.1951219512,-36,0.243902439,8,-0.487804878,3,-0.0130434783,-46,-0.2,131,-0.6390243902
1587065,12031.25,-3552,2.1778050276,832,0.5101164929,-15584,9.5548743102,-1,2.5,-41,0.0609756098,-13,0.7926829268,4,-0.0173913043,-51,-0.2217391304,134,-0.6536585366
1587705,12050.78125,-3552,2.1778050276,960,0.5885959534,-15600,9.5646842428,-26,2.8048780488,-46,1.5853658537,-10,0.6097560976,0,0,-47,-0.2043478261,133,-0.6487804878
1588345,12070.3125,-3568,2.1876149601,992,0.6082158185,-15632,9.5843041079,-26,2.8048780488,-46,1.5853658537,-10,0.6097560976,-1,0.0043478261,-41,-0.1782608696,133,-0.6487804878
1588985,12089.84375,-3568,2.1876149601,992,0.6082158185,-15664,9.603923973,-18,2.8658536585,-47,1.0975609756,3,-0.1829268293,1,-0.0043478261,-44,-0.1913043478,132,-0.643902439
1589625,12109.375,-3472,2.1287553648,944,0.5787860208,-15664,9.603923973,-4,2.743902439,-45,0.243902439,17,-1.0365853659,-1,0.0043478261,-44,-0.1913043478,133,-0.6487804878
1590265,12128.90625,-3504,2.1483752299,896,0.5493562232,-15680,9.6137339056,-4,2.743902439,-45,0.243902439,17,-1.0365853659,-1,0.0043478261,-44,-0.1913043478,131,-0.6390243902
1590905,12148.4375,-3520,2.1581851625,896,0.5493562232,-15712,9.6333537707,-4,3.0487804878,-50,0.243902439,8,-0.487804878,-2,0.0086956522,-41,-0.1782608696,133,-0.6487804878
1591545,12167.96875,-3632,2.2268546904,800,0.4904966278,-15664,9.603923973,-4,3.0487804878,-50,0.243902439,8,-0.487804878,0,0,-45,-0.1956521739,132,-0.643902439
1592185,12187.5,-3520,2.1581851625,896,0.5493562232,-15696,9.6235438381,-15,3.8414634146,-63,0.9146341463,-3,0.1829268293,1,-0.0043478261,-46,-0.2,132,-0.643902439
1592825,12207.03125,-3504,2.1483752299,928,0.5689760883,-15552,9.5352544451,-21,3.7195121951,-61,1.2804878049,-5,0.3048780488,-1,0.0043478261,-42,-0.1826086957,131,-0.6390243902
1593465,12226.5625,-3440,2.1091354997,912,0.5591661557,-15504,9.5058246475,-21,3.7195121951,-61,1.2804878049,-5,0.3048780488,2,-0.0086956522,-50,-0.2173913043,134,-0.6536585366
1594105,12246.09375,-3488,2.1385652974,976,0.598405886,-15584,9.5548743102,6,3.2317073171,-53,-0.3658536585,12,-0.7317073171,2,-0.0086956522,-44,-0.1913043478,134,-0.6536585366
1594745,12265.625,-3648,2.2366646229,960,0.5885959534,-15584,9.5548743102,6,3.2317073171,-53,-0.3658536585,12,-0.7317073171,2,-0.0086956522,-45,-0.1956521739,134,-0.6536585366
1595385,12285.15625,-3552,2.1778050276,1008,0.6180257511,-15536,9.5254445126,-19,3.3536585366,-55,1.1585365854,6,-0.3658536585,-2,0.0086956522,-42,-0.1826086957,131,-0.6390243902
1596025,12304.6875,-3488,2.1385652974,1056,0.6474555487,-15552,9.5352544451,-9,3.1097560976,-51,0.5487804878,10,-0.6097560976,0,0,-45,-0.1956521739,134,-0.6536585366
1596665,12324.21875,-3472,2.1287553648,1040,0.6376456162,-15440,9.4665849172,-9,3.1097560976,-51,0.5487804878,10,-0.6097560976,-1,0.0043478261,-44,-0.1913043478,133,-0.6487804878
1597305,12343.75,-3328,2.0404659718,1008,0.6180257511,-15616,9.5744941754,-21,2.987804878,-49,1.2804878049,-4,0.243902439,0,0,-45,-0.1956521739,132,-0.643902439
1597945,12363.28125,-3296,2.0208461067,960,0.5885959534,-15520,9.51563458,-11,3.0487804878,-50,0.6707317073,3,-0.1829268293,0,0,-51,-0.2217391304,134,-0.6536585366
1598585,12382.8125,-3328,2.0404659718,928,0.5689760883,-15504,9.5058246475,-11,3.0487804878,-50,0.6707317073,3,-0.1829268293,1,-0.0043478261,-45,-0.1956521739,131,-0.6390243902
1599225,12402.34375,-3472,2.1287553648,976,0.598405886,-15520,9.51563458,14,2.8048780488,-46,-0.8536585366,8,-0.487804878,1,-0.0043478261,-43,-0.1869565217,133,-0.6487804878
1599865,12421.875,-3552,2.1778050276,1024,0.6278356836,-15600,9.5646842428,14,2.8048780488,-46,-0.8536585366,8,-0.487804878,0,0,-42,-0.1826086957,132,-0.643902439
1600505,12441.40625,-3488,2.1385652974,976,0.598405886,-15600,9.5646842428,-13,2.5609756098,-42,0.7926829268,4,-0.243902439,1,-0.0043478261,-49,-0.2130434783,135,-0.6585365854
1601145,12460.9375,-3408,2.0895156346,928,0.5689760883,-15568,9.5450643777,-36,3.3536585366,-55,2.1951219512,0,0,-1,0.0043478261,-43,-0.1869565217,134,-0.6536585366
1601785,12480.46875,-3344,2.0502759044,1024,0.6278356836,-15680,9.6137339056,-36,3.3536585366,-55,2.1951219512,0,0,4,-0.0173913043,-49,-0.2130434783,134,-0.6536585366
1602425,12500,-3344,2.0502759044,1072,0.6572654813,-15552,9.5352544451,-15,3.1097560976,-51,0.9146341463,2,-0.1219512195,1,-0.0043478261,-51,-0.2217391304,135,-0.6585365854
1603065,12519.53125,-3280,2.0110361741,1072,0.6572654813,-15568,9.5450643777,-15,3.1097560976,-51,0.9146341463,2,-0.1219512195,1,-0.0043478261,-52,-0.2260869565,136,-0.6634146341
1603705,12539.0625,-3248,1.991416309,1008,0.6180257511,-15552,9.5352544451,8,2.5609756098,-42,-0.487804878,-6,0.3658536585,4,-0.0173913043,-50,-0.2173913043,134,-0.6536585366
1604345,12558.59375,-3296,2.0208461067,960,0.5885959534,-15552,9.5352544451,1,2.1951219512,-36,-0.0609756098,-5,0.3048780488,-1,0.0043478261,-42,-0.1826086957,131,-0.6390243902
1604985,12578.125,-3440,2.1091354997,944,0.5787860208,-15520,9.51563458,1,2.1951219512,-36,-0.0609756098,-5,0.3048780488,0,0,-43,-0.1869565217,133,-0.6487804878
1605625,12597.65625,-3440,2.1091354997,1008,0.6180257511,-15568,9.5450643777,-15,2.1951219512,-36,0.9146341463,-6,0.3658536585,2,-0.0086956522,-46,-0.2,135,-0.6585365854
1606265,12617.1875,-3312,2.0306560392,1008,0.6180257511,-15648,9.5941140405,-15,2.1951219512,-36,0.9146341463,-6,0.3658536585,3,-0.0130434783,-46,-0.2,132,-0.643902439
1606905,12636.71875,-3360,2.0600858369,1072,0.6572654813,-15632,9.5843041079,-19,2.5609756098,-42,1.1585365854,-3,0.1829268293,4,-0.0173913043,-51,-0.2217391304,136,-0.6634146341
1607545,12656.25,-3344,2.0502759044,1024,0.6278356836,-15616,9.5744941754,-14,2.8658536585,-47,0.8536585366,0,0,3,-0.0130434783,-48,-0.2086956522,135,-0.6585365854
1608185,12675.78125,-3360,2.0600858369,880,0.5395462906,-15712,9.6333537707,-14,2.8658536585,-47,0.8536585366,0,0,-1,0.0043478261,-43,-0.1869565217,134,-0.6536585366
1608825,12695.3125,-3344,2.0502759044,896,0.5493562232,-15840,9.7118332311,8,2.8048780488,-46,-0.487804878,-6,0.3658536585,2,-0.0086956522,-49,-0.2130434783,133,-0.6487804878
1609465,12714.84375,-3408,2.0895156346,800,0.4904966278,-15808,9.692213366,-1,3.5975609756,-59,0.0609756098,-8,0.487804878,0,0,-44,-0.1913043478,131,-0.6390243902
1610105,12734.375,-3456,2.1189454323,832,0.5101164929,-15712,9.6333537707,-1,3.5975609756,-59,0.0609756098,-8,0.487804878,-1,0.0043478261,-43,-0.1869565217,132,-0.643902439
1610745,12753.90625,-3424,2.0993255671,976,0.598405886,-15792,9.6824034335,-29,4.2682926829,-70,1.7682926829,-19,1.1585365854,-1,0.0043478261,-45,-0.1956521739,133,-0.6487804878
1611385,12773.4375,-3312,2.0306560392,992,0.6082158185,-15776,9.6725935009,-29,4.2682926829,-70,1.7682926829,-19,1.1585365854,0,0,-42,-0.1826086957,131,-0.6390243902
1612025,12792.96875,-3312,2.0306560392,944,0.5787860208,-15616,9.5744941754,-5,4.2682926829,-70,0.3048780488,-12,0.7317073171,1,-0.0043478261,-45,-0.1956521739,132,-0.643902439
1612665,12812.5,-3424,2.0993255671,976,0.598405886,-15632,9.5843041079,29,3.8414634146,-63,-1.7682926829,-1,0.0609756098,-1,0.0043478261,-41,-0.1782608696,132,-0.643902439
1613305,12832.03125,-3552,2.1778050276,1040,0.6376456162,-15648,9.5941140405,29,3.8414634146,-63,-1.7682926829,-1,0.0609756098,2,-0.0086956522,-49,-0.2130434783,134,-0.6536585366
1613945,12851.5625,-3424,2.0993255671,1056,0.6474555487,-15536,9.5254445126,-25,3.9634146341,-65,1.5243902439,-1,0.0609756098,2,-0.0086956522,-44,-0.1913043478,133,-0.6487804878
1614585,12871.09375,-3264,2.0012262416,1072,0.6572654813,-15520,9.51563458,-25,3.9634146341,-65,1.5243902439,-1,0.0609756098,-1,0.0043478261,-49,-0.2130434783,133,-0.6487804878
1615225,12890.625,-3232,1.9816063765,1088,0.6670754139,-15520,9.51563458,-2,3.5365853659,-58,0.1219512195,7,-0.4268292683,1,-0.0043478261,-43,-0.1869565217,134,-0.6536585366
1615865,12910.15625,14688,-9.0055180871,-5920,-3.629675046,-24096,14.7737584304,174,-133.8414634146,2195,-10.6097560976,-340,20.7317073171,2,-0.0086956522,-49,-0.2130434783,135,-0.6585365854
1616505,12929.6875,-4112,2.5211526671,2480,1.5205395463,-15136,9.2801961987,174,-133.8414634146,2195,-10.6097560976,-340,20.7317073171,4,-0.0173913043,-47,-0.2043478261,130,-0.6341463415
1617145,12949.21875,-8656,5.3071735132,736,0.4512568976,-14208,8.7112201104,1354,-20.243902439,332,-82.5609756098,139,-8.4756097561,7,-0.0304347826,-48,-0.2086956522,126,-0.6146341463
1617785,12968.75,-8880,5.444512569,1824,1.1183323115,-14880,9.1232372777,-909,6.7682926829,-111,55.4268292683,-167,10.1829268293,7,-0.0304347826,-48,-0.2086956522,126,-0.6146341463
1618425,12988.28125,-6688,4.1005518087,2336,1.4322501533,-15632,9.5843041079,-909,6.7682926829,-111,55.4268292683,-167,10.1829268293,4,-0.0173913043,-43,-0.1869565217,127,-0.6195121951
1619065,13007.8125,-5328,3.2667075414,1872,1.1477621091,-16672,10.2219497241,-1206,5,-82,73.5365853659,233,-14.2073170732,4,-0.0173913043,-44,-0.1913043478,130,-0.6341463415
1619705,13027.34375,-3520,2.1581851625,3200,1.9619865113,-16192,9.9276517474,-1206,5,-82,73.5365853659,233,-14.2073170732,3,-0.0130434783,-44,-0.1913043478,135,-0.6585365854
1620345,13046.875,-2368,1.4518700184,-1056,-0.6474555487,-16992,10.4181483752,-808,-14.512195122,238,49.2682926829,-15,0.9146341463,3,-0.0130434783,-50,-0.2173913043,135,-0.6585365854
1620985,13066.40625,-2304,1.4126302882,-928,-0.5689760883,-17184,10.5358675659,54,3.4146341463,-56,-3.2926829268,24,-1.4634146341,-1,0.0043478261,-41,-0.1782608696,134,-0.6536585366
1621625,13085.9375,-3024,1.8540772532,368,0.2256284488,-17136,10.5064377682,54,3.4146341463,-56,-3.2926829268,24,-1.4634146341,1,-0.0043478261,-47,-0.2043478261,135,-0.6585365854
1622265,13105.46875,-3840,2.3543838136,496,0.3041079093,-16960,10.3985285101,333,4.2682926829,-70,-20.3048780488,107,-6.5243902439,2,-0.0086956522,-47,-0.2043478261,134,-0.6536585366
1622905,13125,-4256,2.6094420601,240,0.1471489884,-16624,10.1925199264,333,4.2682926829,-70,-20.3048780488,107,-6.5243902439,1,-0.0043478261,-44,-0.1913043478,133,-0.6487804878
1623545,13144.53125,-3904,2.3936235438,336,0.2060085837,-16192,9.9276517474,5,9.3292682927,-153,-0.3048780488,22,-1.3414634146,0,0,-45,-0.1956521739,134,-0.6536585366
1624185,13164.0625,-3536,2.167995095,352,0.2158185162,-15872,9.7314530963,-122,10.3658536585,-170,7.4390243902,-4,0.243902439,1,-0.0043478261,-42,-0.1826086957,133,-0.6487804878
1624825,13183.59375,-3472,2.1287553648,480,0.2942979767,-15568,9.5450643777,-122,10.3658536585,-170,7.4390243902,-4,0.243902439,1,-0.0043478261,-42,-0.1826086957,132,-0.643902439
1625465,13203.125,-3376,2.0698957695,704,0.4316370325,-15168,9.2998160638,-123,10.9756097561,-180,7.5,7,-0.4268292683,1,-0.0043478261,-49,-0.2130434783,135,-0.6585365854
1626105,13222.65625,-3296,2.0208461067,848,0.5199264255,-15056,9.2311465359,-123,10.9756097561,-180,7.5,7,-0.4268292683,0,0,-49,-0.2130434783,135,-0.6585365854
1626745,13242.1875,-3008,1.8442673207,928,0.5689760883,-15008,9.2017167382,-65,9.3902439024,-154,3.9634146341,-3,0.1829268293,2,-0.0086956522,-48,-0.2086956522,134,-0.6536585366
1627385,13261.71875,-2928,1.7952176579,848,0.5199264255,-14928,9.1526670754,44,6.9512195122,-114,-2.6829268293,23,-1.4024390244,1,-0.0043478261,-44,-0.1913043478,132,-0.643902439
1628025,13281.25,-3072,1.8835070509,832,0.5101164929,-14992,9.1919068056,44,6.9512195122,-114,-2.6829268293,23,-1.4024390244,1,-0.0043478261,-44,-0.1913043478,133,-0.6487804878
1628665,13300.78125,-3232,1.9816063765,976,0.598405886,-15104,9.2605763335,66,4.8780487805,-80,-4.0243902439,17,-1.0365853659,-2,0.0086956522,-52,-0.2260869565,136,-0.6634146341
1629305,13320.3125,-3456,2.1189454323,976,0.598405886,-15056,9.2311465359,-44,3.5975609756,-59,2.6829268293,-4,0.243902439,3,-0.0130434783,-51,-0.2217391304,133,-0.6487804878
1629945,13339.84375,-304,0.1863887186,-13632,-8.3580625383,8768,-5.3758430411,-44,3.5975609756,-59,2.6829268293,-4,0.243902439,1,-0.0043478261,-46,-0.2,133,-0.6487804878
1630585,13359.375,-4976,3.0508890251,-544,-0.3335377069,-7632,4.6793378296,2264,-6.9512195122,114,-138.0487804878,226,-13.7804878049,1,-0.0043478261,-44,-0.1913043478,131,-0.6390243902
1631225,13378.90625,-7200,4.4144696505,2640,1.6186388719,-13136,8.0539546291,2264,-6.9512195122,114,-138.0487804878,226,-13.7804878049,3,-0.0130434783,-46,-0.2,132,-0.643902439
1631865,13398.4375,-7168,4.3948497854,3632,2.2268546904,-14592,8.9466584917,116,-1.7073170732,28,-7.0731707317,-57,3.4756097561,3,-0.0130434783,-50,-0.2173913043,133,-0.6487804878
1632505,13417.96875,-6560,4.0220723483,2368,1.4518700184,-15360,9.4175352544,-1181,-6.5243902439,107,72.012195122,111,-6.7682926829,3,-0.0130434783,-50,-0.2173913043,136,-0.6634146341
1633145,13437.5,-4736,2.9037400368,816,0.5003065604,-16672,10.2219497241,-1181,-6.5243902439,107,72.012195122,111,-6.7682926829,1,-0.0043478261,-47,-0.2043478261,137,-0.6682926829
1633785,13457.03125,1200,-0.7357449418,-992,-0.6082158185,-16672,10.2219497241,-898,20.6707317073,-339,54.756097561,-307,18.7195121951,-2,0.0086956522,-42,-0.1826086957,135,-0.6585365854
1634425,13476.5625,-368,0.2256284488,-192,-0.1177191907,-16320,10.0061312078,-898,20.6707317073,-339,54.756097561,-307,18.7195121951,-2,0.0086956522,-43,-0.1869565217,137,-0.6682926829
1635065,13496.09375,-2960,1.814837523,336,0.2060085837,-16864,10.3396689148,758,-8.4756097561,139,-46.2195121951,151,-9.2073170732,-2,0.0086956522,-47,-0.2043478261,135,-0.6585365854
1635705,13515.625,-4624,2.8350705089,240,0.1471489884,-16976,10.4083384427,575,0,0,-35.0609756098,31,-1.8902439024,2,-0.0086956522,-49,-0.2130434783,134,-0.6536585366
1636345,13535.15625,-4672,2.8645003066,288,0.176578786,-16720,10.2513795218,575,0,0,-35.0609756098,31,-1.8902439024,3,-0.0130434783,-51,-0.2217391304,135,-0.6585365854
1636985,13554.6875,-4528,2.7762109135,432,0.264868179,-16464,10.0944206009,56,5.487804878,-90,-3.4146341463,25,-1.5243902439,4,-0.0173913043,-50,-0.2173913043,135,-0.6585365854
1637625,13574.21875,-3920,2.4034334764,320,0.1961986511,-16336,10.0159411404,-319,8.3536585366,-137,19.4512195122,-57,3.4756097561,4,-0.0173913043,-46,-0.2,134,-0.6536585366
1638265,13593.75,-3200,1.9619865113,336,0.2060085837,-16112,9.8786020846,-319,8.3536585366,-137,19.4512195122,-57,3.4756097561,3,-0.0130434783,-47,-0.2043478261,134,-0.6536585366
1638905,13613.28125,-3072,1.8835070509,560,0.3433476395,-15792,9.6824034335,-196,8.6585365854,-142,11.9512195122,-24,1.4634146341,3,-0.0130434783,-49,-0.2130434783,136,-0.6634146341
1639545,13632.8125,-2880,1.7657878602,608,0.3727774372,-15712,9.6333537707,-196,8.6585365854,-142,11.9512195122,-24,1.4634146341,0,0,-51,-0.2217391304,136,-0.6634146341
1640185,13652.34375,-2912,1.7854077253,656,0.4022072348,-15520,9.51563458,16,7.6829268293,-126,-0.9756097561,-6,0.3658536585,3,-0.0130434783,-48,-0.2086956522,135,-0.6585365854
1640825,13671.875,-3184,1.9521765788,720,0.4414469651,-15392,9.4371551196,141,6.8902439024,-113,-8.5975609756,8,-0.487804878,3,-0.0130434783,-50,-0.2173913043,135,-0.6585365854
1641465,13691.40625,-3536,2.167995095,832,0.5101164929,-15264,9.3586756591,141,6.8902439024,-113,-8.5975609756,8,-0.487804878,1,-0.0043478261,-50,-0.2173913043,136,-0.6634146341
1642105,13710.9375,-3728,2.2857142857,832,0.5101164929,-15280,9.3684855917,43,5.7926829268,-95,-2.6219512195,3,-0.1829268293,-2,0.0086956522,-47,-0.2043478261,134,-0.6536585366
1642745,13730.46875,-3552,2.1778050276,896,0.5493562232,-15264,9.3586756591,43,5.7926829268,-95,-2.6219512195,3,-0.1829268293,-1,0.0043478261,-41,-0.1782608696,131,-0.6390243902
1643385,13750,-3168,1.9423666462,848,0.5199264255,-15360,9.4175352544,-80,5.4268292683,-89,4.8780487805,4,-0.243902439,-1,0.0043478261,-43,-0.1869565217,133,-0.6487804878
1644025,13769.53125,-2912,1.7854077253,784,0.4806866953,-15392,9.4371551196,-7,4.2682926829,-70,0.4268292683,16,-0.9756097561,-2,0.0086956522,-46,-0.2,133,-0.6487804878
1644665,13789.0625,-2992,1.8344573881,832,0.5101164929,-15312,9.3881054568,-7,4.2682926829,-70,0.4268292683,16,-0.9756097561,1,-0.0043478261,-42,-0.1826086957,133,-0.6487804878
1645305,13808.59375,-3200,1.9619865113,848,0.5199264255,-15392,9.4371551196,90,2.8658536585,-47,-5.487804878,13,-0.7926829268,1,-0.0043478261,-43,-0.1869565217,133,-0.6487804878
1645945,13828.125,-3456,2.1189454323,880,0.5395462906,-15488,9.4960147149,-4,3.5365853659,-58,0.243902439,7,-0.4268292683,2,-0.0086956522,-52,-0.2260869565,135,-0.6585365854
1646585,13847.65625,-3424,2.0993255671,880,0.5395462906,-15536,9.5254445126,-4,3.5365853659,-58,0.243902439,7,-0.4268292683,2,-0.0086956522,-48,-0.2086956522,135,-0.6585365854
1647225,13867.1875,-3248,1.991416309,992,0.6082158185,-15504,9.5058246475,-39,3.2926829268,-54,2.3780487805,-5,0.3048780488,0,0,-45,-0.1956521739,132,-0.643902439
1647865,13886.71875,-3088,1.8933169834,960,0.5885959534,-15472,9.4862047823,-39,3.2926829268,-54,2.3780487805,-5,0.3048780488,0,0,-46,-0.2,132,-0.643902439
1648505,13906.25,-3152,1.9325567137,784,0.4806866953,-15440,9.4665849172,4,3.0487804878,-50,-0.243902439,-5,0.3048780488,0,0,-45,-0.1956521739,132,-0.643902439
1649145,13925.78125,-3184,1.9521765788,816,0.5003065604,-15520,9.51563458,37,2.5609756098,-42,-2.256097561,-15,0.9146341463,0,0,-43,-0.1869565217,134,-0.6536585366
1649785,13945.3125,-3232,1.9816063765,784,0.4806866953,-15536,9.5254445126,37,2.5609756098,-42,-2.256097561,-15,0.9146341463,0,0,-46,-0.2,134,-0.6536585366
1650425,13964.84375,-3344,2.0502759044,720,0.4414469651,-15648,9.5941140405,29,2.4390243902,-40,-1.7682926829,-20,1.2195121951,0,0,-46,-0.2,133,-0.6487804878
1651065,13984.375,-3424,2.0993255671,736,0.4512568976,-15536,9.5254445126,29,2.4390243902,-40,-1.7682926829,-20,1.2195121951,-1,0.0043478261,-44,-0.1913043478,132,-0.643902439
1651705,14003.90625,-3552,2.1778050276,688,0.4218270999,-15536,9.5254445126,-24,2.8658536585,-47,1.4634146341,-21,1.2804878049,3,-0.0130434783,-49,-0.2130434783,135,-0.6585365854
1652345,14023.4375,-3456,2.1189454323,768,0.4708767627,-15648,9.5941140405,-40,3.3536585366,-55,2.4390243902,-27,1.6463414634,2,-0.0086956522,-50,-0.2173913043,134,-0.6536585366
1652985,14042.96875,-3248,1.991416309,768,0.4708767627,-15776,9.6725935009,-40,3.3536585366,-55,2.4390243902,-27,1.6463414634,-1,0.0043478261,-46,-0.2,135,-0.6585365854
1653625,14062.5,-3232,1.9816063765,816,0.5003065604,-15744,9.6529736358,14,3.2926829268,-54,-0.8536585366,-37,2.256097561,1,-0.0043478261,-49,-0.2130434783,134,-0.6536585366
1654265,14082.03125,-3408,2.0895156346,768,0.4708767627,-15648,9.5941140405,14,3.2926829268,-54,-0.8536585366,-37,2.256097561,-1,0.0043478261,-45,-0.1956521739,134,-0.6536585366
1654905,14101.5625,-3568,2.1876149601,800,0.4904966278,-15648,9.5941140405,38,3.4146341463,-56,-2.3170731707,-32,1.9512195122,0,0,-44,-0.1913043478,134,-0.6536585366
1655545,14121.09375,-3552,2.1778050276,800,0.4904966278,-15664,9.603923973,-29,3.9634146341,-65,1.7682926829,-33,2.012195122,1,-0.0043478261,-46,-0.2,134,-0.6536585366
1656185,14140.625,-3504,2.1483752299,816,0.5003065604,-15520,9.51563458,-29,3.9634146341,-65,1.7682926829,-33,2.012195122,1,-0.0043478261,-44,-0.1913043478,133,-0.6487804878
1656825,14160.15625,-3376,2.0698957695,736,0.4512568976,-15536,9.5254445126,-19,3.2317073171,-53,1.1585365854,-8,0.487804878,0,0,-42,-0.1826086957,132,-0.643902439
1657465,14179.6875,-3456,2.1189454323,768,0.4708767627,-15584,9.5548743102,34,2.743902439,-45,-2.0731707317,3,-0.1829268293,0,0,-44,-0.1913043478,133,-0.6487804878
1658105,14199.21875,-3584,2.1974248927,752,0.4610668302,-15568,9.5450643777,34,2.743902439,-45,-2.0731707317,3,-0.1829268293,1,-0.0043478261,-47,-0.2043478261,135,-0.6585365854
1658745,14218.75,-3616,2.2170447578,720,0.4414469651,-15504,9.5058246475,-18,3.0487804878,-50,1.0975609756,-5,0.3048780488,1,-0.0043478261,-44,-0.1913043478,134,-0.6536585366
1659385,14238.28125,-3504,2.1483752299,832,0.5101164929,-15584,9.5548743102,-18,3.0487804878,-50,1.0975609756,-5,0.3048780488,0,0,-52,-0.2260869565,135,-0.6585365854
1660025,14257.8125,-3376,2.0698957695,752,0.4610668302,-15616,9.5744941754,-13,3.3536585366,-55,0.7926829268,0,0,2,-0.0086956522,-52,-0.2260869565,136,-0.6634146341
1660665,14277.34375,-3360,2.0600858369,736,0.4512568976,-15648,9.5941140405,11,3.1097560976,-51,-0.6707317073,7,-0.4268292683,1,-0.0043478261,-47,-0.2043478261,132,-0.643902439
1661305,14296.875,-3424,2.0993255671,800,0.4904966278,-15616,9.5744941754,11,3.1097560976,-51,-0.6707317073,7,-0.4268292683,0,0,-42,-0.1826086957,133,-0.6487804878
1661945,14316.40625,-3328,2.0404659718,784,0.4806866953,-15600,9.5646842428,7,2.9268292683,-48,-0.4268292683,10,-0.6097560976,0,0,-42,-0.1826086957,133,-0.6487804878
1662585,14335.9375,-3312,2.0306560392,752,0.4610668302,-15600,9.5646842428,7,2.9268292683,-48,-0.4268292683,10,-0.6097560976,-2,0.0086956522,-50,-0.2173913043,136,-0.6634146341
1663225,14355.46875,-3328,2.0404659718,784,0.4806866953,-15568,9.5450643777,13,2.5,-41,-0.7926829268,13,-0.7926829268,-1,0.0043478261,-46,-0.2,133,-0.6487804878
1663865,14375,-3328,2.0404659718,800,0.4904966278,-15616,9.5744941754,20,2.9268292683,-48,-1.2195121951,1,-0.0609756098,4,-0.0173913043,-50,-0.2173913043,134,-0.6536585366
1664505,14394.53125,-3440,2.1091354997,816,0.5003065604,-15536,9.5254445126,20,2.9268292683,-48,-1.2195121951,1,-0.0609756098,0,0,-45,-0.1956521739,132,-0.643902439
1665145,14414.0625,-3392,2.079705702,752,0.4610668302,-15520,9.51563458,-33,3.3536585366,-55,2.012195122,-8,0.487804878,-1,0.0043478261,-45,-0.1956521739,135,-0.6585365854
1665785,14433.59375,-3280,2.0110361741,784,0.4806866953,-15664,9.603923973,-9,2.8048780488,-46,0.5487804878,-11,0.6707317073,3,-0.0130434783,-50,-0.2173913043,134,-0.6536585366
1666425,14453.125,-3200,1.9619865113,784,0.4806866953,-15616,9.5744941754,-9,2.8048780488,-46,0.5487804878,-11,0.6707317073,-1,0.0043478261,-46,-0.2,134,-0.6536585366
1667065,14472.65625,-3296,2.0208461067,752,0.4610668302,-15600,9.5646842428,35,2.6829268293,-44,-2.1341463415,-6,0.3658536585,0,0,-41,-0.1782608696,134,-0.6536585366
1667705,14492.1875,-3376,2.0698957695,768,0.4708767627,-15632,9.5843041079,35,2.6829268293,-44,-2.1341463415,-6,0.3658536585,-2,0.0086956522,-45,-0.1956521739,133,-0.6487804878
1668345,14511.71875,-3424,2.0993255671,816,0.5003065604,-15584,9.5548743102,-12,3.2926829268,-54,0.7317073171,-26,1.5853658537,-2,0.0086956522,-45,-0.1956521739,133,-0.6487804878
1668985,14531.25,-3488,2.1385652974,864,0.5297363581,-15552,9.5352544451,-19,3.2926829268,-54,1.1585365854,-20,1.2195121951,1,-0.0043478261,-43,-0.1869565217,134,-0.6536585366
1669625,14550.78125,-3504,2.1483752299,944,0.5787860208,-15600,9.5646842428,-19,3.2926829268,-54,1.1585365854,-20,1.2195121951,1,-0.0043478261,-44,-0.1913043478,133,-0.6487804878
1670265,14570.3125,-3376,2.0698957695,864,0.5297363581,-15520,9.51563458,-28,3.2317073171,-53,1.7073170732,-10,0.6097560976,-1,0.0043478261,-42,-0.1826086957,134,-0.6536585366
1670905,14589.84375,-3264,2.0012262416,752,0.4610668302,-15488,9.4960147149,-28,3.2317073171,-53,1.7073170732,-10,0.6097560976,-1,0.0043478261,-41,-0.1782608696,134,-0.6536585366
1671545,14609.375,-3312,2.0306560392,800,0.4904966278,-15584,9.5548743102,26,2.0731707317,-34,-1.5853658537,1,-0.0609756098,3,-0.0130434783,-48,-0.2086956522,134,-0.6536585366
1672185,14628.90625,-3504,2.1483752299,656,0.4022072348,-15600,9.5646842428,30,2.012195122,-33,-1.8292682927,7,-0.4268292683,3,-0.0130434783,-47,-0.2043478261,134,-0.6536585366
1672825,14648.4375,-3536,2.167995095,576,0.353157572,-15728,9.6431637032,30,2.012195122,-33,-1.8292682927,7,-0.4268292683,4,-0.0173913043,-51,-0.2217391304,136,-0.6634146341
1673465,14667.96875,-3360,2.0600858369,624,0.3825873697,-15728,9.6431637032,-8,2.4390243902,-40,0.487804878,-6,0.3658536585,-1,0.0043478261,-49,-0.2130434783,134,-0.6536585366
1674105,14687.5,-3376,2.0698957695,688,0.4218270999,-15696,9.6235438381,13,2.4390243902,-40,-0.7926829268,-10,0.6097560976,3,-0.0130434783,-47,-0.2043478261,134,-0.6536585366
1674745,14707.03125,-3424,2.0993255671,784,0.4806866953,-15664,9.603923973,13,2.4390243902,-40,-0.7926829268,-10,0.6097560976,1,-0.0043478261,-48,-0.2086956522,135,-0.6585365854
1675385,14726.5625,-3392,2.079705702,752,0.4610668302,-15632,9.5843041079,-12,3.1097560976,-51,0.7317073171,-19,1.1585365854,-1,0.0043478261,-46,-0.2,136,-0.6634146341
1676025,14746.09375,-3328,2.0404659718,656,0.4022072348,-15648,9.5941140405,-12,3.1097560976,-51,0.7317073171,-19,1.1585365854,-1,0.0043478261,-45,-0.1956521739,135,-0.6585365854
1676665,14765.625,-3328,2.0404659718,704,0.4316370325,-15600,9.5646842428,37,2.3170731707,-38,-2.256097561,1,-0.0609756098,2,-0.0086956522,-45,-0.1956521739,132,-0.643902439
1677305,14785.15625,-3456,2.1189454323,720,0.4414469651,-15712,9.6333537707,21,2.256097561,-37,-1.2804878049,2,-0.1219512195,1,-0.0043478261,-45,-0.1956521739,132,-0.643902439
1677945,14804.6875,-3472,2.1287553648,656,0.4022072348,-15680,9.6137339056,21,2.256097561,-37,-1.2804878049,2,-0.1219512195,1,-0.0043478261,-44,-0.1913043478,132,-0.643902439
1678585,14824.21875,-3408,2.0895156346,720,0.4414469651,-15648,9.5941140405,-32,2.987804878,-49,1.9512195122,-15,0.9146341463,2,-0.0086956522,-46,-0.2,136,-0.6634146341
1679225,14843.75,-3456,2.1189454323,736,0.4512568976,-15648,9.5941140405,-32,2.987804878,-49,1.9512195122,-15,0.9146341463,3,-0.0130434783,-51,-0.2217391304,134,-0.6536585366
1679865,14863.28125,-3280,2.0110361741,656,0.4022072348,-15568,9.5450643777,-33,3.5975609756,-59,2.012195122,-25,1.5243902439,3,-0.0130434783,-50,-0.2173913043,135,-0.6585365854
1680505,14882.8125,-3312,2.0306560392,672,0.4120171674,-15504,9.5058246475,30,3.1707317073,-52,-1.8292682927,-15,0.9146341463,3,-0.0130434783,-47,-0.2043478261,136,-0.6634146341
1681145,14902.34375,-3520,2.1581851625,752,0.4610668302,-15456,9.4763948498,30,3.1707317073,-52,-1.8292682927,-15,0.9146341463,1,-0.0043478261,-47,-0.2043478261,135,-0.6585365854
1681785,14921.875,-3600,2.2072348253,800,0.4904966278,-15472,9.4862047823,30,2.1341463415,-35,-1.8292682927,-11,0.6707317073,1,-0.0043478261,-43,-0.1869565217,134,-0.6536585366
1682425,14941.40625,-3584,2.1974248927,656,0.4022072348,-15584,9.5548743102,30,2.1341463415,-35,-1.8292682927,-11,0.6707317073,3,-0.0130434783,-49,-0.2130434783,134,-0.6536585366
1683065,14960.9375,-3472,2.1287553648,624,0.3825873697,-15600,9.5646842428,-18,2.1341463415,-35,1.0975609756,-1,0.0609756098,1,-0.0043478261,-45,-0.1956521739,134,-0.6536585366
1683705,14980.46875,-3440,2.1091354997,656,0.4022072348,-15648,9.5941140405,-11,1.9512195122,-32,0.6707317073,7,-0.4268292683,1,-0.0043478261,-47,-0.2043478261,133,-0.6487804878
1684345,15000,-3440,2.1091354997,672,0.4120171674,-15760,9.6627835684,-11,1.9512195122,-32,0.6707317073,7,-0.4268292683,2,-0.0086956522,-45,-0.1956521739,132,-0.643902439
1684985,15019.53125,-3424,2.0993255671,656,0.4022072348,-15616,9.5744941754,-20,2.6829268293,-44,1.2195121951,0,0,2,-0.0086956522,-48,-0.2086956522,136,-0.6634146341
1685625,15039.0625,-3344,2.0502759044,640,0.3923973023,-15744,9.6529736358,14,2.8658536585,-47,-0.8536585366,-6,0.3658536585,4,-0.0173913043,-47,-0.2043478261,134,-0.6536585366
1686265,15058.59375,-3328,2.0404659718,720,0.4414469651,-15760,9.6627835684,14,2.8658536585,-47,-0.8536585366,-6,0.3658536585,0,0,-46,-0.2,134,-0.6536585366
1686905,15078.125,-3360,2.0600858369,688,0.4218270999,-15760,9.6627835684,15,2.987804878,-49,-0.9146341463,-4,0.243902439,2,-0.0086956522,-49,-0.2130434783,133,-0.6487804878
1687545,15097.65625,-3392,2.079705702,624,0.3825873697,-15696,9.6235438381,15,2.987804878,-49,-0.9146341463,-4,0.243902439,3,-0.0130434783,-48,-0.2086956522,135,-0.6585365854
1688185,15117.1875,-3456,2.1189454323,640,0.3923973023,-15632,9.5843041079,-2,3.5975609756,-59,0.1219512195,-7,0.4268292683,1,-0.0043478261,-49,-0.2130434783,135,-0.6585365854
1688825,15136.71875,-3424,2.0993255671,768,0.4708767627,-15744,9.6529736358,-20,3.5975609756,-59,1.2195121951,-15,0.9146341463,1,-0.0043478261,-45,-0.1956521739,134,-0.6536585366
1689465,15156.25,-3280,2.0110361741,752,0.4610668302,-15808,9.692213366,-20,3.5975609756,-59,1.2195121951,-15,0.9146341463,2,-0.0086956522,-48,-0.2086956522,134,-0.6536585366
1690105,15175.78125,-3248,1.991416309,752,0.4610668302,-15680,9.6137339056,10,3.7804878049,-62,-0.6097560976,-12,0.7317073171,1,-0.0043478261,-48,-0.2086956522,135,-0.6585365854
1690745,15195.3125,-3456,2.1189454323,736,0.4512568976,-15568,9.5450643777,10,3.7804878049,-62,-0.6097560976,-12,0.7317073171,3,-0.0130434783,-46,-0.2,133,-0.6487804878
1691385,15214.84375,-3568,2.1876149601,768,0.4708767627,-15584,9.5548743102,29,3.7804878049,-62,-1.7682926829,-10,0.6097560976,1,-0.0043478261,-45,-0.1956521739,134,-0.6536585366
1692025,15234.375,-3392,2.079705702,752,0.4610668302,-15616,9.5744941754,-28,4.4512195122,-73,1.7073170732,-17,1.0365853659,1,-0.0043478261,-47,-0.2043478261,136,-0.6634146341
1692665,15253.90625,-3328,2.0404659718,736,0.4512568976,-15568,9.5450643777,-28,4.4512195122,-73,1.7073170732,-17,1.0365853659,2,-0.0086956522,-45,-0.1956521739,136,-0.6634146341
1693305,15273.4375,-3360,2.0600858369,864,0.5297363581,-15456,9.4763948498,33,3.2926829268,-54,-2.012195122,-8,0.487804878,0,0,-44,-0.1913043478,133,-0.6487804878
1693945,15292.96875,-3568,2.1876149601,928,0.5689760883,-15536,9.5254445126,8,3.2926829268,-54,-0.487804878,-7,0.4268292683,1,-0.0043478261,-43,-0.1869565217,134,-0.6536585366
1694585,15312.5,-3472,2.1287553648,768,0.4708767627,-15520,9.51563458,8,3.2926829268,-54,-0.487804878,-7,0.4268292683,0,0,-46,-0.2,133,-0.6487804878
1695225,15332.03125,-3296,2.0208461067,640,0.3923973023,-15536,9.5254445126,-1,2.9268292683,-48,0.0609756098,-11,0.6707317073,-1,0.0043478261,-45,-0.1956521739,132,-0.643902439
1695865,15351.5625,-3296,2.0208461067,640,0.3923973023,-15376,9.427345187,-1,2.9268292683,-48,0.0609756098,-11,0.6707317073,0,0,-44,-0.1913043478,132,-0.643902439
1696505,15371.09375,-3504,2.1483752299,736,0.4512568976,-15376,9.427345187,47,2.1341463415,-35,-2.8658536585,-11,0.6707317073,1,-0.0043478261,-42,-0.1826086957,132,-0.643902439
1697145,15390.625,-3584,2.1974248927,736,0.4512568976,-15520,9.51563458,13,2.256097561,-37,-0.7926829268,-20,1.2195121951,3,-0.0130434783,-47,-0.2043478261,133,-0.6487804878
1697785,15410.15625,-3472,2.1287553648,704,0.4316370325,-15616,9.5744941754,13,2.256097561,-37,-0.7926829268,-20,1.2195121951,3,-0.0130434783,-47,-0.2043478261,133,-0.6487804878
1698425,15429.6875,-3520,2.1581851625,672,0.4120171674,-15600,9.5646842428,8,2.0731707317,-34,-0.487804878,-7,0.4268292683,0,0,-48,-0.2086956522,134,-0.6536585366
1699065,15449.21875,-3536,2.167995095,640,0.3923973023,-15680,9.6137339056,8,2.0731707317,-34,-0.487804878,-7,0.4268292683,0,0,-46,-0.2,133,-0.6487804878
1699705,15468.75,-3488,2.1385652974,736,0.4512568976,-15712,9.6333537707,11,2.1951219512,-36,-0.6707317073,-12,0.7317073171,4,-0.0173913043,-48,-0.2086956522,134,-0.6536585366
1700345,15488.28125,-3472,2.1287553648,720,0.4414469651,-15728,9.6431637032,-4,2.743902439,-45,0.243902439,-7,0.4268292683,1,-0.0043478261,-46,-0.2,131,-0.6390243902
1700985,15507.8125,-3472,2.1287553648,672,0.4120171674,-15680,9.6137339056,-4,2.743902439,-45,0.243902439,-7,0.4268292683,1,-0.0043478261,-49,-0.2130434783,133,-0.6487804878
1701625,15527.34375,-3440,2.1091354997,784,0.4806866953,-15680,9.6137339056,4,2.9268292683,-48,-0.243902439,-15,0.9146341463,0,0,-45,-0.1956521739,134,-0.6536585366
1702265,15546.875,-3536,2.167995095,864,0.5297363581,-15696,9.6235438381,-7,3.3536585366,-55,0.4268292683,-18,1.0975609756,4,-0.0173913043,-51,-0.2217391304,134,-0.6536585366
1702905,15566.40625,-3424,2.0993255671,672,0.4120171674,-15632,9.5843041079,-7,3.3536585366,-55,0.4268292683,-18,1.0975609756,1,-0.0043478261,-49,-0.2130434783,134,-0.6536585366
1703545,15585.9375,-3392,2.079705702,672,0.4120171674,-15552,9.5352544451,24,3.9634146341,-65,-1.4634146341,-20,1.2195121951,4,-0.0173913043,-47,-0.2043478261,135,-0.6585365854
1704185,15605.46875,-3616,2.2170447578,848,0.5199264255,-15408,9.4469650521,24,3.9634146341,-65,-1.4634146341,-20,1.2195121951,2,-0.0086956522,-45,-0.1956521739,135,-0.6585365854
1704825,15625,-3776,2.3151440834,864,0.5297363581,-15376,9.427345187,20,2.987804878,-49,-1.2195121951,-20,1.2195121951,3,-0.0130434783,-51,-0.2217391304,135,-0.6585365854
1705465,15644.53125,-3760,2.3053341508,704,0.4316370325,-15440,9.4665849172,-38,2.8048780488,-46,2.3170731707,-10,0.6097560976,0,0,-47,-0.2043478261,134,-0.6536585366
1706105,15664.0625,-3728,2.2857142857,704,0.4316370325,-15392,9.4371551196,-38,2.8048780488,-46,2.3170731707,-10,0.6097560976,3,-0.0130434783,-48,-0.2086956522,134,-0.6536585366
1706745,15683.59375,-3840,2.3543838136,608,0.3727774372,-15376,9.427345187,-8,1.4634146341,-24,0.487804878,23,-1.4024390244,3,-0.0130434783,-46,-0.2,133,-0.6487804878
1707385,15703.125,-3904,2.3936235438,624,0.3825873697,-15472,9.4862047823,-8,1.4634146341,-24,0.487804878,23,-1.4024390244,3,-0.0130434783,-49,-0.2130434783,133,-0.6487804878
1708025,15722.65625,-4208,2.5800122624,592,0.3629675046,-15584,9.5548743102,-25,1.6463414634,-27,1.5243902439,29,-1.7682926829,1,-0.0043478261,-46,-0.2,134,-0.6536585366
1708665,15742.1875,-4400,2.6977314531,608,0.3727774372,-15584,9.5548743102,-65,2.3170731707,-38,3.9634146341,47,-2.8658536585,2,-0.0086956522,-47,-0.2043478261,134,-0.6536585366
1709305,15761.71875,-4688,2.8743102391,768,0.4708767627,-15456,9.4763948498,-65,2.3170731707,-38,3.9634146341,47,-2.8658536585,2,-0.0086956522,-43,-0.1869565217,134,-0.6536585366
1709945,15781.25,-5056,3.0999386879,1008,0.6180257511,-15360,9.4175352544,-98,3.1097560976,-51,5.9756097561,52,-3.1707317073,0,0,-50,-0.2173913043,134,-0.6536585366
1710585,15800.78125,-5440,3.3353770693,1296,0.7946045371,-15136,9.2801961987,-98,3.1097560976,-51,5.9756097561,52,-3.1707317073,0,0,-44,-0.1913043478,135,-0.6585365854
1711225,15820.3125,-5536,3.3942366646,896,0.5493562232,-14928,9.1526670754,-178,4.1463414634,-68,10.8536585366,43,-2.6219512195,1,-0.0043478261,-45,-0.1956521739,133,-0.6487804878
1711865,15839.84375,-5296,3.2470876763,400,0.2452483139,-15088,9.250766401,-122,2.1341463415,-35,7.4390243902,148,-9.0243902439,0,0,-51,-0.2217391304,136,-0.6634146341
1712505,15859.375,-5136,3.1489883507,272,0.1667688535,-15216,9.3292458614,-122,2.1341463415,-35,7.4390243902,148,-9.0243902439,0,0,-50,-0.2173913043,137,-0.6682926829
1713145,15878.90625,-5344,3.2765174739,416,0.2550582465,-15360,9.4175352544,106,-2.6219512195,43,-6.4634146341,355,-21.6463414634,1,-0.0043478261,-53,-0.2304347826,135,-0.6585365854
1713785,15898.4375,-5712,3.5021459227,448,0.2746781116,-15504,9.5058246475,151,-5.6707317073,93,-9.2073170732,529,-32.256097561,0,0,-48,-0.2086956522,136,-0.6634146341
1714425,15917.96875,-5984,3.6689147762,272,0.1667688535,-15536,9.5254445126,151,-5.6707317073,93,-9.2073170732,529,-32.256097561,-1,0.0043478261,-50,-0.2173913043,135,-0.6585365854
1715065,15937.5,-5824,3.5708154506,80,0.0490496628,-15568,9.5450643777,-65,-6.0975609756,100,3.9634146341,619,-37.743902439,0,0,-50,-0.2173913043,136,-0.6634146341
1715705,15957.03125,-5120,3.1391784181,-48,-0.0294297977,-15648,9.5941140405,-65,-6.0975609756,100,3.9634146341,619,-37.743902439,-2,0.0086956522,-50,-0.2173913043,136,-0.6634146341
1716345,15976.5625,-4800,2.942979767,80,0.0490496628,-15616,9.5744941754,-146,-5.9146341463,97,8.9024390244,712,-43.4146341463,-1,0.0043478261,-52,-0.2260869565,136,-0.6634146341
1716985,15996.09375,-4480,2.7467811159,240,0.1471489884,-15568,9.5450643777,-38,-5.3658536585,88,2.3170731707,767,-46.7682926829,-1,0.0043478261,-54,-0.2347826087,137,-0.6682926829
1717625,16015.625,-4784,2.9331698345,464,0.2844880441,-15408,9.4469650521,-38,-5.3658536585,88,2.3170731707,767,-46.7682926829,-1,0.0043478261,-55,-0.2391304348,136,-0.6634146341
1718265,16035.15625,-5376,3.2961373391,464,0.2844880441,-15184,9.3096259963,-71,-2.743902439,45,4.3292682927,684,-41.7073170732,-1,0.0043478261,-58,-0.252173913,138,-0.6731707317
1718905,16054.6875,-5488,3.364806867,208,0.1275291232,-14928,9.1526670754,-71,-2.743902439,45,4.3292682927,684,-41.7073170732,-3,0.0130434783,-56,-0.2434782609,138,-0.6731707317
1719545,16074.21875,-5440,3.3353770693,-240,-0.1471489884,-14992,9.1919068056,-91,-1.1585365854,19,5.5487804878,665,-40.5487804878,-3,0.0130434783,-60,-0.2608695652,138,-0.6731707317
1720185,16093.75,-5648,3.4629061925,-400,-0.2452483139,-15152,9.2900061312,121,-3.3536585366,55,-7.3780487805,828,-50.487804878,-3,0.0130434783,-58,-0.252173913,137,-0.6682926829
1720825,16113.28125,-5968,3.6591048437,-432,-0.264868179,-15152,9.2900061312,121,-3.3536585366,55,-7.3780487805,828,-50.487804878,-4,0.0173913043,-64,-0.2782608696,138,-0.6731707317
1721465,16132.8125,-6144,3.7670141018,-368,-0.2256284488,-15024,9.2115266708,214,-7.0731707317,116,-13.0487804878,1025,-62.5,-3,0.0130434783,-60,-0.2608695652,135,-0.6585365854
1722105,16152.34375,-6096,3.7375843041,-560,-0.3433476395,-15136,9.2801961987,268,-11.8902439024,195,-16.3414634146,1208,-73.6585365854,-1,0.0043478261,-63,-0.2739130435,137,-0.6682926829
1722745,16171.875,-5792,3.5511955855,-752,-0.4610668302,-15440,9.4665849172,268,-11.8902439024,195,-16.3414634146,1208,-73.6585365854,-6,0.0260869565,-60,-0.2608695652,137,-0.6682926829
1723385,16191.40625,-5760,3.5315757204,-992,-0.6082158185,-15392,9.4371551196,313,-16.2195121951,266,-19.0853658537,1410,-85.9756097561,-3,0.0130434783,-69,-0.3,138,-0.6731707317
1724025,16210.9375,-5664,3.4727161251,-1120,-0.686695279,-15424,9.4567749847,313,-16.2195121951,266,-19.0853658537,1410,-85.9756097561,-5,0.0217391304,-71,-0.3086956522,139,-0.6780487805
1724665,16230.46875,-5360,3.2863274065,-1248,-0.7651747394,-15520,9.51563458,144,-18.1707317073,298,-8.7804878049,1533,-93.4756097561,-2,0.0086956522,-72,-0.3130434783,138,-0.6731707317
1725305,16250,-4448,2.7271612508,-1312,-0.8044144697,-15664,9.603923973,-15,-18.7804878049,308,0.9146341463,1583,-96.5243902439,-4,0.0173913043,-75,-0.3260869565,138,-0.6731707317
1725945,16269.53125,-3504,2.1483752299,-1376,-0.8436541999,-15744,9.6529736358,-15,-18.7804878049,308,0.9146341463,1583,-96.5243902439,-7,0.0304347826,-73,-0.3173913043,139,-0.6780487805
1726585,16289.0625,-2880,1.7657878602,-1264,-0.774984672,-15664,9.603923973,62,-18.6585365854,306,-3.7804878049,1581,-96.4024390244,-10,0.0434782609,-74,-0.3217391304,139,-0.6780487805
1727225,16308.59375,-2528,1.549969344,-1024,-0.6278356836,-15680,9.6137339056,62,-18.6585365854,306,-3.7804878049,1581,-96.4024390244,-8,0.0347826087,-81,-0.352173913,140,-0.6829268293
1727865,16328.125,-2144,1.3145309626,-976,-0.598405886,-15632,9.5843041079,62,-17.987804878,295,-3.7804878049,1515,-92.3780487805,-11,0.047826087,-79,-0.3434782609,140,-0.6829268293
1728505,16347.65625,-1696,1.039852851,-960,-0.5885959534,-15488,9.4960147149,45,-17.743902439,291,-2.743902439,1405,-85.6707317073,-12,0.052173913,-79,-0.3434782609,142,-0.6926829268
1729145,16367.1875,-1232,0.7553648069,-912,-0.5591661557,-15616,9.5744941754,45,-17.743902439,291,-2.743902439,1405,-85.6707317073,-16,0.0695652174,-81,-0.352173913,140,-0.6829268293
1729785,16386.71875,-1008,0.6180257511,-816,-0.5003065604,-15696,9.6235438381,98,-18.1707317073,298,-5.9756097561,1310,-79.8780487805,-12,0.052173913,-87,-0.3782608696,143,-0.6975609756
1730425,16406.25,-1008,0.6180257511,-800,-0.4904966278,-15616,9.5744941754,98,-18.1707317073,298,-5.9756097561,1310,-79.8780487805,-16,0.0695652174,-87,-0.3782608696,143,-0.6975609756
1731065,16425.78125,-1280,0.7847946045,-544,-0.3335377069,-15632,9.5843041079,131,-17.8658536585,293,-7.987804878,1200,-73.1707317073,-15,0.0652173913,-84,-0.3652173913,141,-0.687804878
1731705,16445.3125,-1472,0.9025137952,-464,-0.2844880441,-15664,9.603923973,-18,-17.8048780488,292,1.0975609756,1053,-64.2073170732,-17,0.0739130435,-86,-0.3739130435,142,-0.6926829268
1732345,16464.84375,-1488,0.9123237278,-592,-0.3629675046,-15792,9.6824034335,-18,-17.8048780488,292,1.0975609756,1053,-64.2073170732,-18,0.0782608696,-88,-0.3826086957,144,-0.7024390244
1732985,16484.375,-1040,0.6376456162,-656,-0.4022072348,-15952,9.780502759,-129,-15.3658536585,252,7.8658536585,937,-57.1341463415,-21,0.0913043478,-89,-0.3869565217,144,-0.7024390244
1733625,16503.90625,-544,0.3335377069,-496,-0.3041079093,-16192,9.9276517474,65,-14.6341463415,240,-3.9634146341,894,-54.512195122,-19,0.0826086957,-89,-0.3869565217,145,-0.7073170732
1734265,16523.4375,-704,0.4316370325,-384,-0.2354383814,-16160,9.9080318823,65,-14.6341463415,240,-3.9634146341,894,-54.512195122,-21,0.0913043478,-90,-0.3913043478,144,-0.7024390244
1734905,16542.96875,-928,0.5689760883,-368,-0.2256284488,-16272,9.9767014102,114,-13.9634146341,229,-6.9512195122,791,-48.2317073171,-23,0.1,-92,-0.4,146,-0.712195122
1735545,16562.5,-752,0.4610668302,-400,-0.2452483139,-16320,10.0061312078,114,-13.9634146341,229,-6.9512195122,791,-48.2317073171,-22,0.0956521739,-88,-0.3826086957,144,-0.7024390244
1736185,16582.03125,-496,0.3041079093,-304,-0.1863887186,-16336,10.0159411404,70,-12.9268292683,212,-4.2682926829,709,-43.2317073171,-25,0.1086956522,-94,-0.4086956522,145,-0.7073170732
1736825,16601.5625,-128,0.0784794605,-176,-0.1079092581,-16416,10.0649908032,24,-11.4024390244,187,-1.4634146341,606,-36.9512195122,-24,0.1043478261,-88,-0.3826086957,146,-0.712195122
1737465,16621.09375,304,-0.1863887186,-96,-0.0588595953,-16528,10.1336603311,24,-11.4024390244,187,-1.4634146341,606,-36.9512195122,-26,0.1130434783,-88,-0.3826086957,147,-0.7170731707
1738105,16640.625,688,-0.4218270999,32,0.0196198651,-16688,10.2317596567,-10,-10.1829268293,167,0.6097560976,469,-28.5975609756,-24,0.1043478261,-93,-0.4043478261,146,-0.712195122
1738745,16660.15625,1136,-0.6965052115,48,0.0294297977,-16960,10.3985285101,-10,-10.1829268293,167,0.6097560976,469,-28.5975609756,-25,0.1086956522,-90,-0.3913043478,144,-0.7024390244
1739385,16679.6875,1312,-0.8044144697,80,0.0490496628,-16976,10.4083384427,78,-6.3414634146,104,-4.756097561,271,-16.5243902439,-27,0.1173913043,-90,-0.3913043478,147,-0.7170731707
1740025,16699.21875,1072,-0.6572654813,-80,-0.0490496628,-16944,10.3887185776,161,-2.3170731707,38,-9.8170731707,82,-5,-26,0.1130434783,-92,-0.4,146,-0.712195122
1740665,16718.75,704,-0.4316370325,-128,-0.0784794605,-16944,10.3887185776,161,-2.3170731707,38,-9.8170731707,82,-5,-26,0.1130434783,-94,-0.4086956522,147,-0.7170731707
1741305,16738.28125,416,-0.2550582465,-224,-0.1373390558,-17136,10.5064377682,65,1.8292682927,-30,-3.9634146341,-146,8.9024390244,-24,0.1043478261,-93,-0.4043478261,146,-0.712195122
1741945,16757.8125,256,-0.1569589209,-240,-0.1471489884,-17216,10.555487431,-128,7.5609756098,-124,7.8048780488,-362,22.0731707317,-25,0.1086956522,-89,-0.3869565217,145,-0.7073170732
1742585,16777.34375,208,-0.1275291232,-144,-0.088289393,-16960,10.3985285101,-128,7.5609756098,-124,7.8048780488,-362,22.0731707317,-24,0.1043478261,-89,-0.3869565217,145,-0.7073170732
1743225,16796.875,304,-0.1863887186,-304,-0.1863887186,-16816,10.3102391171,-142,10.8536585366,-178,8.6585365854,-515,31.4024390244,-25,0.1086956522,-93,-0.4043478261,147,-0.7170731707
1743865,16816.40625,336,-0.2060085837,-496,-0.3041079093,-16736,10.2611894543,-142,10.8536585366,-178,8.6585365854,-515,31.4024390244,-25,0.1086956522,-91,-0.3956521739,146,-0.712195122
1744505,16835.9375,304,-0.1863887186,-704,-0.4316370325,-16608,10.1827099939,-102,12.6829268293,-208,6.2195121951,-632,38.5365853659,-23,0.1,-89,-0.3869565217,146,-0.712195122
1745145,16855.46875,160,-0.0980993256,-656,-0.4022072348,-16496,10.114040466,-104,13.7804878049,-226,6.3414634146,-767,46.7682926829,-23,0.1,-90,-0.3913043478,145,-0.7073170732
1745785,16875,192,-0.1177191907,-656,-0.4022072348,-16352,10.025751073,-104,13.7804878049,-226,6.3414634146,-767,46.7682926829,-23,0.1,-91,-0.3956521739,146,-0.712195122
1746425,16894.53125,288,-0.176578786,-896,-0.5493562232,-16080,9.8589822195,-183,14.8780487805,-244,11.1585365854,-908,55.3658536585,-22,0.0956521739,-87,-0.3782608696,146,-0.712195122
1747065,16914.0625,496,-0.3041079093,-1248,-0.7651747394,-16080,9.8589822195,-183,14.8780487805,-244,11.1585365854,-908,55.3658536585,-21,0.0913043478,-89,-0.3869565217,145,-0.7073170732
1747705,16933.59375,416,-0.2550582465,-1136,-0.6965052115,-16400,10.0551808706,-185,15,-246,11.2804878049,-1056,64.3902439024,-21,0.0913043478,-84,-0.3652173913,144,-0.7024390244
1748345,16953.125,240,-0.1471489884,-880,-0.5395462906,-16592,10.1729000613,-175,17.256097561,-283,10.6707317073,-1248,76.0975609756,-21,0.0913043478,-82,-0.3565217391,145,-0.7073170732
1748985,16972.65625,80,-0.0490496628,-1264,-0.774984672,-16704,10.2415695892,-175,17.256097561,-283,10.6707317073,-1248,76.0975609756,-19,0.0826086957,-81,-0.352173913,146,-0.712195122
1749625,16992.1875,-32,0.0196198651,-2032,-1.2458614347,-16528,10.1336603311,-155,20.487804878,-336,9.4512195122,-1379,84.0853658537,-17,0.0739130435,-85,-0.3695652174,146,-0.712195122
1750265,17011.71875,-384,0.2354383814,-2176,-1.3341508277,-16512,10.1238503985,-70,22.5609756098,-370,4.2682926829,-1514,92.3170731707,-15,0.0652173913,-81,-0.352173913,145,-0.7073170732
1750905,17031.25,-1008,0.6180257511,-1888,-1.1575720417,-16624,10.1925199264,-70,22.5609756098,-370,4.2682926829,-1514,92.3170731707,-16,0.0695652174,-79,-0.3434782609,144,-0.7024390244
1751545,17050.78125,-1344,0.8240343348,-1712,-1.0496627836,-16480,10.1042305334,-161,25.0609756098,-411,9.8170731707,-1617,98.5975609756,-17,0.0739130435,-75,-0.3260869565,142,-0.6926829268
1752185,17070.3125,-1552,0.951563458,-1888,-1.1575720417,-16160,9.9080318823,-161,25.0609756098,-411,9.8170731707,-1617,98.5975609756,-12,0.052173913,-78,-0.3391304348,145,-0.7073170732
1752825,17089.84375,-1872,1.1477621091,-2016,-1.2360515021,-15776,9.6725935009,-138,26.0975609756,-428,8.4146341463,-1686,102.8048780488,-11,0.047826087,-77,-0.3347826087,144,-0.7024390244
1753465,17109.375,-2000,1.2262415696,-2048,-1.2556713673,-15360,9.4175352544,-110,23.9024390244,-392,6.7073170732,-1688,102.9268292683,-9,0.0391304348,-72,-0.3130434783,142,-0.6926829268
1754105,17128.90625,-1952,1.1968117719,-1952,-1.1968117719,-15328,9.3979153893,-110,23.9024390244,-392,6.7073170732,-1688,102.9268292683,-11,0.047826087,-69,-0.3,141,-0.687804878
1754745,17148.4375,-1856,1.1379521766,-1568,-0.9613733906,-15504,9.5058246475,-39,21.3414634146,-350,2.3780487805,-1717,104.6951219512,-9,0.0391304348,-70,-0.3043478261,143,-0.6975609756
1755385,17167.96875,-1744,1.0692826487,-1872,-1.1477621091,-15680,9.6137339056,-39,21.3414634146,-350,2.3780487805,-1717,104.6951219512,-8,0.0347826087,-64,-0.2782608696,141,-0.687804878
1756025,17187.5,-1840,1.128142244,-2608,-1.5990190067,-15600,9.5646842428,133,20,-328,-8.1097560976,-1697,103.4756097561,-5,0.0217391304,-66,-0.2869565217,141,-0.687804878
1756665,17207.03125,-2480,1.5205395463,-2688,-1.6480686695,-15472,9.4862047823,194,21.5243902439,-353,-11.8292682927,-1748,106.5853658537,-5,0.0217391304,-63,-0.2739130435,140,-0.6829268293
1757305,17226.5625,-2768,1.6971183323,-2128,-1.30472103,-15504,9.5058246475,194,21.5243902439,-353,-11.8292682927,-1748,106.5853658537,-5,0.0217391304,-62,-0.2695652174,138,-0.6731707317
1757945,17246.09375,-2656,1.6284488044,-1648,-1.0104230533,-15552,9.5352544451,12,22.8658536585,-375,-0.7317073171,-1830,111.5853658537,-3,0.0130434783,-56,-0.2434782609,137,-0.6682926829
1758585,17265.625,-2608,1.5990190067,-2176,-1.3341508277,-15872,9.7314530963,12,22.8658536585,-375,-0.7317073171,-1830,111.5853658537,-5,0.0217391304,-52,-0.2260869565,138,-0.6731707317
1759225,17285.15625,-2800,1.7167381974,-2624,-1.6088289393,-16000,9.8099325567,45,22.3780487805,-367,-2.743902439,-1870,114.0243902439,-3,0.0130434783,-45,-0.1956521739,136,-0.6634146341
1759865,17304.6875,-3024,1.8540772532,-2576,-1.5793991416,-16064,9.8491722869,98,26.3414634146,-432,-5.9756097561,-1959,119.4512195122,-1,0.0043478261,-47,-0.2043478261,138,-0.6731707317
1760505,17324.21875,-3360,2.0600858369,-2112,-1.2949110975,-15808,9.692213366,98,26.3414634146,-432,-5.9756097561,-1959,119.4512195122,0,0,-46,-0.2,138,-0.6731707317
1761145,17343.75,-3536,2.167995095,-2016,-1.2360515021,-15760,9.6627835684,166,27.6219512195,-453,-10.1219512195,-1998,121.8292682927,0,0,-44,-0.1913043478,137,-0.6682926829
1761785,17363.28125,-3728,2.2857142857,-2528,-1.549969344,-16128,9.8884120172,368,29.9390243902,-491,-22.4390243902,-1981,120.7926829268,-1,0.0043478261,-40,-0.1739130435,135,-0.6585365854
1762425,17382.8125,-3952,2.4230533415,-2944,-1.8050275904,-16336,10.0159411404,368,29.9390243902,-491,-22.4390243902,-1981,120.7926829268,1,-0.0043478261,-40,-0.1739130435,135,-0.6585365854
1763065,17402.34375,-4576,2.8056407112,-3040,-1.8638871858,-16032,9.8295524218,522,35.7926829268,-587,-31.8292682927,-2027,123.5975609756,2,-0.0086956522,-34,-0.147826087,133,-0.6487804878
1763705,17421.875,-5648,3.4629061925,-2768,-1.6971183323,-15520,9.51563458,522,35.7926829268,-587,-31.8292682927,-2027,123.5975609756,2,-0.0086956522,-37,-0.1608695652,133,-0.6487804878
1764345,17441.40625,-6432,3.9435928878,-2128,-1.30472103,-15408,9.4469650521,327,37.743902439,-619,-19.9390243902,-1989,121.2804878049,5,-0.0217391304,-35,-0.152173913,133,-0.6487804878
1764985,17460.9375,-6720,4.1201716738,-1472,-0.9025137952,-15200,9.3194359289,-117,38.1707317073,-626,7.1341463415,-1903,116.0365853659,2,-0.0086956522,-27,-0.1173913043,129,-0.6292682927
1765625,17480.46875,-6000,3.6787247088,-1152,-0.7063151441,-15088,9.250766401,-117,38.1707317073,-626,7.1341463415,-1903,116.0365853659,2,-0.0086956522,-24,-0.1043478261,130,-0.6341463415
1766265,17500,-5184,3.1784181484,-944,-0.5787860208,-15040,9.2213366033,-493,32.6219512195,-535,30.0609756098,-1758,107.1951219512,1,-0.0043478261,-22,-0.0956521739,130,-0.6341463415
1766905,17519.53125,-5040,3.0901287554,-416,-0.2550582465,-14992,9.1919068056,-493,32.6219512195,-535,30.0609756098,-1758,107.1951219512,-3,0.0130434783,-21,-0.0913043478,133,-0.6487804878
1767545,17539.0625,-4816,2.9527896996,-384,-0.2354383814,-15072,9.2409564684,-545,21.9512195122,-360,33.2317073171,-1479,90.1829268293,0,0,-21,-0.0913043478,133,-0.6487804878
1768185,17558.59375,-4000,2.4524831392,-672,-0.4120171674,-15024,9.2115266708,-575,17.8048780488,-292,35.0609756098,-1297,79.0853658537,-7,0.0304347826,-15,-0.0652173913,134,-0.6536585366
1768825,17578.125,-3344,2.0502759044,-800,-0.4904966278,-14992,9.1919068056,-575,17.8048780488,-292,35.0609756098,-1297,79.0853658537,-6,0.0260869565,-19,-0.0826086957,135,-0.6585365854
1769465,17597.65625,-3120,1.9129368486,-992,-0.6082158185,-15056,9.2311465359,-238,13.1707317073,-216,14.512195122,-1237,75.4268292683,-5,0.0217391304,-16,-0.0695652174,134,-0.6536585366
1770105,17617.1875,-3520,2.1581851625,-1184,-0.7259350092,-15008,9.2017167382,102,10.9146341463,-179,-6.2195121951,-1216,74.1463414634,-8,0.0347826087,-11,-0.047826087,134,-0.6536585366
1770745,17636.71875,-4208,2.5800122624,-1312,-0.8044144697,-14944,9.162477008,102,10.9146341463,-179,-6.2195121951,-1216,74.1463414634,-6,0.0260869565,-16,-0.0695652174,135,-0.6585365854
1771385,17656.25,-4464,2.7369711833,-1312,-0.8044144697,-14864,9.1134273452,107,11.7682926829,-193,-6.5243902439,-1238,75.487804878,-7,0.0304347826,-12,-0.052173913,134,-0.6536585366
1772025,17675.78125,-4672,2.8645003066,-1104,-0.6768853464,-15056,9.2311465359,107,11.7682926829,-193,-6.5243902439,-1238,75.487804878,-8,0.0347826087,-9,-0.0391304348,132,-0.643902439
1772665,17695.3125,-5296,3.2470876763,-832,-0.5101164929,-15104,9.2605763335,119,9.4512195122,-155,-7.256097561,-1153,70.3048780488,-6,0.0260869565,-12,-0.052173913,134,-0.6536585366
1773305,17714.84375,-5968,3.6591048437,-976,-0.598405886,-15008,9.2017167382,-17,6.8292682927,-112,1.0365853659,-998,60.8536585366,-8,0.0347826087,-6,-0.0260869565,135,-0.6585365854
1773945,17734.375,-6208,3.806253832,-1072,-0.6572654813,-15456,9.4763948498,-17,6.8292682927,-112,1.0365853659,-998,60.8536585366,-10,0.0434782609,-3,-0.0130434783,133,-0.6487804878
1774585,17753.90625,-5952,3.6492949111,-992,-0.6082158185,-15504,9.5058246475,-132,8.2317073171,-135,8.0487804878,-932,56.8292682927,-9,0.0391304348,-5,-0.0217391304,135,-0.6585365854
1775225,17773.4375,-6576,4.0318822808,-1024,-0.6278356836,-15376,9.427345187,-132,8.2317073171,-135,8.0487804878,-932,56.8292682927,-10,0.0434782609,-5,-0.0217391304,135,-0.6585365854
1775865,17792.96875,-7360,4.5125689761,-1152,-0.7063151441,-15632,9.5843041079,9,7.8658536585,-129,-0.5487804878,-802,48.9024390244,-11,0.047826087,-2,-0.0086956522,133,-0.6487804878
1776505,17812.5,-8064,4.9442060086,-1136,-0.6965052115,-15600,9.5646842428,41,11.4634146341,-188,-2.5,-748,45.6097560976,-11,0.047826087,-1,-0.0043478261,133,-0.6487804878
1777145,17832.03125,-8672,5.3169834457,-1312,-0.8044144697,-15552,9.5352544451,41,11.4634146341,-188,-2.5,-748,45.6097560976,-9,0.0391304348,-3,-0.0130434783,134,-0.6536585366
1777785,17851.5625,-9776,5.9938687922,-1632,-1.0006131208,-15168,9.2998160638,193,13.4756097561,-221,-11.7682926829,-556,33.9024390244,-12,0.052173913,4,0.0173913043,131,-0.6390243902
1778425,17871.09375,-11296,6.925812385,-1616,-0.9908031882,-14496,8.8877988964,139,12.8048780488,-210,-8.4756097561,-215,13.1097560976,-10,0.0434782609,2,0.0086956522,132,-0.643902439
1779065,17890.625,-11920,7.3083997548,-1248,-0.7651747394,-14192,8.7014101778,139,12.8048780488,-210,-8.4756097561,-215,13.1097560976,-12,0.052173913,2,0.0086956522,132,-0.643902439
1779705,17910.15625,-11616,7.1220110362,-992,-0.6082158185,-14288,8.7602697731,-150,5.1829268293,-85,9.1463414634,323,-19.6951219512,-12,0.052173913,-2,-0.0086956522,135,-0.6585365854
1780345,17929.6875,-10576,6.48436542,-960,-0.5885959534,-14464,8.8681790313,-150,5.1829268293,-85,9.1463414634,323,-19.6951219512,-12,0.052173913,-2,-0.0086956522,135,-0.6585365854
1780985,17949.21875,-9728,5.9644389945,-1120,-0.686695279,-14672,8.9957081545,-40,-3.7804878049,62,2.4390243902,817,-49.8170731707,-9,0.0391304348,-2,-0.0086956522,134,-0.6536585366
1781625,17968.75,-9344,5.7290006131,-1232,-0.7553648069,-14704,9.0153280196,124,-11.0365853659,181,-7.5609756098,1190,-72.5609756098,-10,0.0434782609,-4,-0.0173913043,133,-0.6487804878
1782265,17988.28125,-8832,5.4150827713,-1408,-0.863274065,-14896,9.1330472103,124,-11.0365853659,181,-7.5609756098,1190,-72.5609756098,-12,0.052173913,-7,-0.0304347826,133,-0.6487804878
1782905,18007.8125,-8304,5.0913549969,-1584,-0.9711833231,-14944,9.162477008,126,-14.512195122,238,-7.6829268293,1449,-88.3536585366,-9,0.0391304348,-3,-0.0130434783,133,-0.6487804878
1783545,18027.34375,-8192,5.022685469,-1744,-1.0692826487,-14864,9.1134273452,126,-14.512195122,238,-7.6829268293,1449,-88.3536585366,-6,0.0260869565,-10,-0.0434782609,133,-0.6487804878
1784185,18046.875,-8272,5.0717351318,-1952,-1.1968117719,-15088,9.250766401,245,-15.487804878,254,-14.9390243902,1621,-98.8414634146,-6,0.0260869565,-8,-0.0347826087,131,-0.6390243902
1784825,18066.40625,-7488,4.5910484365,-2208,-1.3537706928,-15504,9.5058246475,37,-14.756097561,242,-2.256097561,1726,-105.243902439,-5,0.0217391304,-10,-0.0434782609,133,-0.6487804878
1785465,18085.9375,-6496,3.982832618,-2400,-1.4714898835,-15536,9.5254445126,37,-14.756097561,242,-2.256097561,1726,-105.243902439,-4,0.0173913043,-12,-0.052173913,134,-0.6536585366
1786105,18105.46875,-6400,3.9239730227,-2368,-1.4518700184,-15104,9.2605763335,192,-17.6219512195,289,-11.7073170732,2004,-122.1951219512,-2,0.0086956522,-20,-0.0869565217,134,-0.6536585366
1786745,18125,-6928,4.2477007971,-2288,-1.4028203556,-15024,9.2115266708,192,-17.6219512195,289,-11.7073170732,2004,-122.1951219512,1,-0.0043478261,-21,-0.0913043478,132,-0.643902439
1787385,18144.53125,-7232,4.4340895156,-2320,-1.4224402207,-15168,9.2998160638,316,-20.9146341463,343,-19.2682926829,2083,-127.012195122,0,0,-22,-0.0956521739,131,-0.6390243902
1788025,18164.0625,-6544,4.0122624157,-2752,-1.6873083998,-15504,9.5058246475,-238,-19.9390243902,327,14.512195122,2167,-132.1341463415,-1,0.0043478261,-23,-0.1,131,-0.6390243902
1788665,18183.59375,-4944,3.03126916,-3184,-1.9521765788,-15728,9.6431637032,-238,-19.9390243902,327,14.512195122,2167,-132.1341463415,1,-0.0043478261,-28,-0.1217391304,132,-0.643902439
1789305,18203.125,-4064,2.4917228694,-3216,-1.9717964439,-15344,9.4077253219,43,-21.1585365854,347,-2.6219512195,2339,-142.6219512195,2,-0.0086956522,-33,-0.1434782609,132,-0.643902439
1789945,18222.65625,-4496,2.7565910484,-2816,-1.72654813,-15136,9.2801961987,201,-25.3048780488,415,-12.256097561,2397,-146.1585365854,2,-0.0086956522,-33,-0.1434782609,132,-0.643902439
1790585,18242.1875,-4800,2.942979767,-2992,-1.8344573881,-15536,9.5254445126,201,-25.3048780488,415,-12.256097561,2397,-146.1585365854,2,-0.0086956522,-38,-0.1652173913,133,-0.6487804878
1791225,18261.71875,-4144,2.5407725322,-3328,-2.0404659718,-15904,9.7510729614,-255,-21.4634146341,352,15.5487804878,2356,-143.6585365854,2,-0.0086956522,-40,-0.1739130435,132,-0.643902439
1791865,18281.25,-3456,2.1189454323,-3328,-2.0404659718,-15616,9.5744941754,-255,-21.4634146341,352,15.5487804878,2356,-143.6585365854,0,0,-44,-0.1913043478,134,-0.6536585366
1792505,18300.78125,-3056,1.8736971183,-3152,-1.9325567137,-15712,9.6333537707,-59,-19.9390243902,327,3.5975609756,2292,-139.756097561,0,0,-45,-0.1956521739,134,-0.6536585366
1793145,18320.3125,-2752,1.6873083998,-3232,-1.9816063765,-16016,9.8197424893,-44,-16.8292682927,276,2.6829268293,2284,-139.2682926829,-2,0.0086956522,-49,-0.2130434783,134,-0.6536585366
1793785,18339.84375,-2544,1.5597792765,-3152,-1.9325567137,-15984,9.8001226242,-44,-16.8292682927,276,2.6829268293,2284,-139.2682926829,-2,0.0086956522,-57,-0.247826087,135,-0.6585365854
1794425,18359.375,-2640,1.6186388719,-2672,-1.638258737,-15536,9.5254445126,-13,-14.3902439024,236,0.7926829268,2145,-130.7926829268,-2,0.0086956522,-55,-0.2391304348,137,-0.6682926829
1795065,18378.90625,-2832,1.7363580625,-2368,-1.4518700184,-15184,9.3096259963,-13,-14.3902439024,236,0.7926829268,2145,-130.7926829268,-4,0.0173913043,-57,-0.247826087,136,-0.6634146341
1795705,18398.4375,-2576,1.5793991416,-2736,-1.6774984672,-15424,9.4567749847,-118,-13.8414634146,227,7.1951219512,2016,-122.9268292683,-3,0.0130434783,-63,-0.2739130435,137,-0.6682926829
1796345,18417.96875,-2000,1.2262415696,-3152,-1.9325567137,-15600,9.5646842428,-101,-13.7195121951,225,6.1585365854,1998,-121.8292682927,-5,0.0217391304,-64,-0.2782608696,140,-0.6829268293
1796985,18437.5,-1696,1.039852851,-2992,-1.8344573881,-15520,9.51563458,-101,-13.7195121951,225,6.1585365854,1998,-121.8292682927,-7,0.0304347826,-68,-0.2956521739,140,-0.6829268293
1797625,18457.03125,-2112,1.2949110975,-2432,-1.4911097486,-15008,9.2017167382,103,-14.6951219512,241,-6.2804878049,2013,-122.743902439,-8,0.0347826087,-75,-0.3260869565,141,-0.687804878
1798265,18476.5625,-2416,1.4812998161,-2096,-1.2851011649,-14896,9.1330472103,-43,-17.8048780488,292,2.6219512195,1985,-121.0365853659,-8,0.0347826087,-77,-0.3347826087,141,-0.687804878
1798905,18496.09375,-1760,1.0790925812,-2432,-1.4911097486,-15440,9.4665849172,-43,-17.8048780488,292,2.6219512195,1985,-121.0365853659,-11,0.047826087,-76,-0.3304347826,141,-0.687804878
1799545,18515.625,-944,0.5787860208,-2640,-1.6186388719,-15664,9.603923973,61,-19.6341463415,322,-3.7195121951,1976,-120.487804878,-12,0.052173913,-77,-0.3347826087,140,-0.6829268293
1800185,18535.15625,-864,0.5297363581,-2400,-1.4714898835,-15488,9.4960147149,61,-19.6341463415,322,-3.7195121951,1976,-120.487804878,-12,0.052173913,-84,-0.3652173913,144,-0.7024390244
1800825,18554.6875,-1136,0.6965052115,-2064,-1.2654812998,-15600,9.5646842428,223,-20.7317073171,340,-13.5975609756,1972,-120.243902439,-14,0.0608695652,-86,-0.3739130435,143,-0.6975609756
1801465,18574.21875,-1280,0.7847946045,-1984,-1.216431637,-15328,9.3979153893,-15,-20.6707317073,339,0.9146341463,1902,-115.9756097561,-15,0.0652173913,-83,-0.3608695652,143,-0.6975609756
1802105,18593.75,-1408,0.863274065,-1840,-1.128142244,-15200,9.3194359289,-15,-20.6707317073,339,0.9146341463,1902,-115.9756097561,-19,0.0826086957,-86,-0.3739130435,143,-0.6975609756
1802745,18613.28125,-352,0.2158185162,-1840,-1.128142244,-15536,9.5254445126,-243,-21.2195121951,348,14.8170731707,1751,-106.7682926829,-22,0.0956521739,-86,-0.3739130435,145,-0.7073170732
1803385,18632.8125,800,-0.4904966278,-1872,-1.1477621091,-15792,9.6824034335,-243,-21.2195121951,348,14.8170731707,1751,-106.7682926829,-24,0.1043478261,-91,-0.3956521739,145,-0.7073170732
1804025,18652.34375,1584,-0.9711833231,-1568,-0.9613733906,-15648,9.5941140405,4,-21.5243902439,353,-0.243902439,1759,-107.256097561,-24,0.1043478261,-91,-0.3956521739,146,-0.712195122
1804665,18671.875,1552,-0.951563458,-1088,-0.6670754139,-15776,9.6725935009,306,-26.8292682927,440,-18.6585365854,1666,-101.5853658537,-26,0.1130434783,-93,-0.4043478261,147,-0.7170731707
1805305,18691.40625,1648,-1.0104230533,-1024,-0.6278356836,-16192,9.9276517474,306,-26.8292682927,440,-18.6585365854,1666,-101.5853658537,-30,0.1304347826,-90,-0.3913043478,147,-0.7170731707
1805945,18710.9375,2480,-1.5205395463,-1136,-0.6965052115,-16576,10.1630901288,328,-26.0365853659,427,-20,1495,-91.1585365854,-28,0.1217391304,-96,-0.4173913043,147,-0.7170731707
1806585,18730.46875,3216,-1.9717964439,-928,-0.5689760883,-16848,10.3298589822,570,-24.3902439024,400,-34.756097561,1262,-76.9512195122,-29,0.1260869565,-96,-0.4173913043,147,-0.7170731707
1807225,18750,3680,-2.256284488,-800,-0.4904966278,-17328,10.6241569589,570,-24.3902439024,400,-34.756097561,1262,-76.9512195122,-31,0.1347826087,-90,-0.3913043478,148,-0.7219512195
1807865,18769.53125,3376,-2.0698957695,-704,-0.4316370325,-17344,10.6339668915,706,-22.256097561,365,-43.0487804878,1007,-61.4024390244,-31,0.1347826087,-92,-0.4,148,-0.7219512195
1808505,18789.0625,2928,-1.7952176579,-784,-0.4806866953,-17648,10.8203556101,706,-22.256097561,365,-43.0487804878,1007,-61.4024390244,-30,0.1304347826,-97,-0.4217391304,148,-0.7219512195
1809145,18808.59375,2640,-1.6186388719,-704,-0.4316370325,-18016,11.0459840589,374,-15.6707317073,257,-22.8048780488,639,-38.9634146341,-31,0.1347826087,-97,-0.4217391304,147,-0.7170731707
1809785,18828.125,2736,-1.6774984672,-352,-0.2158185162,-18048,11.065603924,-102,-5.5487804878,91,6.2195121951,239,-14.5731707317,-33,0.1434782609,-93,-0.4043478261,148,-0.7219512195
1810425,18847.65625,2976,-1.8246474555,-176,-0.1079092581,-17824,10.9282648682,-102,-5.5487804878,91,6.2195121951,239,-14.5731707317,-33,0.1434782609,-95,-0.4130434783,147,-0.7170731707
1811065,18867.1875,3488,-2.1385652974,-256,-0.1569589209,-17648,10.8203556101,-345,1.2804878049,-21,21.0365853659,-139,8.4756097561,-32,0.1391304348,-98,-0.4260869565,149,-0.7268292683
1811705,18886.71875,3920,-2.4034334764,-480,-0.2942979767,-17376,10.6535867566,-345,1.2804878049,-21,21.0365853659,-139,8.4756097561,-32,0.1391304348,-96,-0.4173913043,148,-0.7219512195
1812345,18906.25,4272,-2.6192519926,-624,-0.3825873697,-17360,10.643776824,-254,5.6707317073,-93,15.487804878,-429,26.1585365854,-32,0.1391304348,-93,-0.4043478261,147,-0.7170731707
1812985,18925.78125,4064,-2.4917228694,-848,-0.5199264255,-17456,10.7026364194,-31,7.987804878,-131,1.8902439024,-644,39.2682926829,-33,0.1434782609,-93,-0.4043478261,148,-0.7219512195
1813625,18945.3125,3472,-2.1287553648,-736,-0.4512568976,-17264,10.5849172287,-31,7.987804878,-131,1.8902439024,-644,39.2682926829,-32,0.1391304348,-95,-0.4130434783,149,-0.7268292683
1814265,18964.84375,3056,-1.8736971183,-1008,-0.6180257511,-17104,10.4868179031,-65,11.0975609756,-182,3.9634146341,-850,51.8292682927,-31,0.1347826087,-95,-0.4130434783,149,-0.7268292683
1814905,18984.375,3168,-1.9423666462,-1264,-0.774984672,-16816,10.3102391171,-65,11.0975609756,-182,3.9634146341,-850,51.8292682927,-29,0.1260869565,-92,-0.4,148,-0.7219512195
1815545,19003.90625,3040,-1.8638871858,-1712,-1.0496627836,-16880,10.3494788473,-164,13.7195121951,-225,10,-1110,67.6829268293,-28,0.1217391304,-92,-0.4,147,-0.7170731707
1816185,19023.4375,2816,-1.72654813,-1824,-1.1183323115,-17200,10.5456774985,-191,16.3414634146,-268,11.6463414634,-1416,86.3414634146,-28,0.1217391304,-91,-0.3956521739,148,-0.7219512195
1816825,19042.96875,2560,-1.5695892091,-2224,-1.3635806254,-17376,10.6535867566,-191,16.3414634146,-268,11.6463414634,-1416,86.3414634146,-27,0.1173913043,-90,-0.3913043478,146,-0.712195122
1817465,19062.5,2400,-1.4714898835,-2864,-1.7559779277,-17360,10.643776824,-202,21.0975609756,-346,12.3170731707,-1651,100.6707317073,-25,0.1086956522,-90,-0.3913043478,147,-0.7170731707
1818105,19082.03125,1840,-1.128142244,-3136,-1.9227467811,-17168,10.5260576334,-133,25.0609756098,-411,8.1097560976,-1865,113.7195121951,-22,0.0956521739,-90,-0.3913043478,147,-0.7170731707
1818745,19101.5625,1248,-0.7651747394,-3264,-2.0012262416,-17232,10.5652973636,-133,25.0609756098,-411,8.1097560976,-1865,113.7195121951,-22,0.0956521739,-82,-0.3565217391,146,-0.712195122
1819385,19121.09375,992,-0.6082158185,-3600,-2.2072348253,-16880,10.3494788473,-230,29.4512195122,-483,14.0243902439,-2059,125.5487804878,-19,0.0826086957,-80,-0.347826087,147,-0.7170731707
1820025,19140.625,880,-0.5395462906,-3888,-2.3838136113,-16336,10.0159411404,-230,29.4512195122,-483,14.0243902439,-2059,125.5487804878,-18,0.0782608696,-83,-0.3608695652,146,-0.712195122
1820665,19160.15625,288,-0.176578786,-3792,-2.3249540159,-16352,10.025751073,-209,29.4512195122,-483,12.743902439,-2248,137.0731707317,-17,0.0739130435,-81,-0.352173913,145,-0.7073170732
1821305,19179.6875,-128,0.0784794605,-3696,-2.2660944206,-16496,10.114040466,-266,31.6463414634,-519,16.2195121951,-2450,149.3902439024,-15,0.0652173913,-74,-0.3217391304,146,-0.712195122
1821945,19199.21875,-208,0.1275291232,-4032,-2.4721030043,-16080,9.8589822195,-266,31.6463414634,-519,16.2195121951,-2450,149.3902439024,-14,0.0608695652,-73,-0.3173913043,145,-0.7073170732
1822585,19218.75,-448,0.2746781116,-4400,-2.6977314531,-15664,9.603923973,-247,32.743902439,-537,15.0609756098,-2567,156.5243902439,-12,0.052173913,-74,-0.3217391304,146,-0.712195122
1823225,19238.28125,-832,0.5101164929,-4352,-2.6683016554,-15808,9.692213366,-247,32.743902439,-537,15.0609756098,-2567,156.5243902439,-9,0.0391304348,-70,-0.3043478261,145,-0.7073170732
1823865,19257.8125,-1056,0.6474555487,-4400,-2.6977314531,-15904,9.7510729614,-109,31.7073170732,-520,6.6463414634,-2662,162.3170731707,-9,0.0391304348,-65,-0.2826086957,142,-0.6926829268
1824505,19277.34375,-1296,0.7946045371,-4800,-2.942979767,-15872,9.7314530963,-9,31.7073170732,-520,0.5487804878,-2694,164.2682926829,-8,0.0347826087,-59,-0.2565217391,142,-0.6926829268
1825145,19296.875,-1328,0.8142244022,-4992,-3.0606989577,-16208,9.93746168,-9,31.7073170732,-520,0.5487804878,-2694,164.2682926829,-6,0.0260869565,-56,-0.2434782609,141,-0.687804878
1825785,19316.40625,-1552,0.951563458,-4752,-2.9135499693,-16112,9.8786020846,212,31.8292682927,-522,-12.9268292683,-2749,167.6219512195,-5,0.0217391304,-53,-0.2304347826,139,-0.6780487805
1826425,19335.9375,-2112,1.2949110975,-4560,-2.7958307787,-15792,9.6824034335,468,32.3780487805,-531,-28.5365853659,-2692,164.1463414634,-4,0.0173913043,-51,-0.2217391304,139,-0.6780487805
1827065,19355.46875,-2464,1.5107296137,-5104,-3.1293684856,-15648,9.5941140405,468,32.3780487805,-531,-28.5365853659,-2692,164.1463414634,-3,0.0130434783,-42,-0.1826086957,138,-0.6731707317
1827705,19375,-2928,1.7952176579,-5152,-3.1587982833,-15504,9.5058246475,585,35.243902439,-578,-35.6707317073,-2708,165.1219512195,-1,0.0043478261,-48,-0.2086956522,139,-0.6780487805
1828345,19394.53125,-3888,2.3838136113,-5024,-3.0803188228,-15776,9.6725935009,585,35.243902439,-578,-35.6707317073,-2708,165.1219512195,-1,0.0043478261,-43,-0.1869565217,135,-0.6585365854
1828985,19414.0625,-4688,2.8743102391,-5104,-3.1293684856,-15904,9.7510729614,633,40.1829268293,-659,-38.5975609756,-2824,172.1951219512,4,-0.0173913043,-39,-0.1695652174,135,-0.6585365854
1829625,19433.59375,-4832,2.9625996321,-5248,-3.2176578786,-15584,9.5548743102,386,46.3414634146,-760,-23.5365853659,-2840,173.1707317073,2,-0.0086956522,-36,-0.1565217391,133,-0.6487804878
1830265,19453.125,-5120,3.1391784181,-5264,-3.2274678112,-15424,9.4567749847,386,46.3414634146,-760,-23.5365853659,-2840,173.1707317073,3,-0.0130434783,-28,-0.1217391304,132,-0.643902439
1830905,19472.65625,-5952,3.6492949111,-4784,-2.9331698345,-15616,9.5744941754,484,48.5975609756,-797,-29.512195122,-2827,172.3780487805,3,-0.0130434783,-24,-0.1043478261,130,-0.6341463415
1831545,19492.1875,-6480,3.9730226855,-4320,-2.6486817903,-15280,9.3684855917,484,48.5975609756,-797,-29.512195122,-2827,172.3780487805,2,-0.0086956522,-25,-0.1086956522,132,-0.643902439
1832185,19511.71875,-6656,4.0809319436,-3984,-2.4426732066,-14928,9.1526670754,231,51.2804878049,-841,-14.0853658537,-2807,171.1585365854,-1,0.0043478261,-16,-0.0695652174,128,-0.6243902439
1832825,19531.25,-6544,4.0122624157,-3696,-2.2660944206,-14960,9.1722869405,-29,44.0243902439,-722,1.7682926829,-2508,152.9268292683,-1,0.0043478261,-13,-0.0565217391,129,-0.6292682927
1833465,19550.78125,-6160,3.7768240343,-3360,-2.0600858369,-15424,9.4567749847,-29,44.0243902439,-722,1.7682926829,-2508,152.9268292683,-2,0.0086956522,-12,-0.052173913,130,-0.6341463415
1834105,19570.3125,-5920,3.629675046,-3040,-1.8638871858,-15184,9.3096259963,223,43.2317073171,-709,-13.5975609756,-2364,144.1463414634,-1,0.0043478261,-12,-0.052173913,130,-0.6341463415
1834745,19589.84375,-6832,4.1888412017,-2864,-1.7559779277,-14448,8.8583690987,223,43.2317073171,-709,-13.5975609756,-2364,144.1463414634,-4,0.0173913043,-2,-0.0086956522,127,-0.6195121951
1835385,19609.375,-7760,4.75781729,-2832,-1.7363580625,-14384,8.8191293685,210,38.8414634146,-637,-12.8048780488,-2088,127.3170731707,-4,0.0173913043,-4,-0.0173913043,129,-0.6292682927
1836025,19628.90625,-8032,4.9245861435,-2944,-1.8050275904,-14544,8.9172286941,-182,41.0365853659,-673,11.0975609756,-2043,124.5731707317,-6,0.0260869565,-3,-0.0130434783,129,-0.6292682927
1836665,19648.4375,-7664,4.6989576947,-2384,-1.461679951,-14176,8.6916002452,-182,41.0365853659,-673,11.0975609756,-2043,124.5731707317,-7,0.0304347826,-1,-0.0043478261,128,-0.6243902439
1837305,19667.96875,-7744,4.7480073574,-1680,-1.0300429185,-13760,8.4365419988,-284,38.0487804878,-624,17.3170731707,-1947,118.7195121951,-8,0.0347826087,1,0.0043478261,130,-0.6341463415
1837945,19687.5,-8128,4.9834457388,-1440,-0.8828939301,-13952,8.5542611895,-180,29.3292682927,-481,10.9756097561,-1692,103.1707317073,-11,0.047826087,5,0.0217391304,129,-0.6292682927
1838585,19707.03125,-8384,5.1404046597,-1696,-1.039852851,-14240,8.7308399755,-180,29.3292682927,-481,10.9756097561,-1692,103.1707317073,-11,0.047826087,3,0.0130434783,131,-0.6390243902
1839225,19726.5625,-8528,5.2286940527,-1776,-1.0889025138,-14064,8.6229307174,-30,25.7926829268,-423,1.8292682927,-1526,93.0487804878,-15,0.0652173913,6,0.0260869565,130,-0.6341463415
1839865,19746.09375,-9360,5.7388105457,-1504,-0.9221336603,-13584,8.3286327406,-30,25.7926829268,-423,1.8292682927,-1526,93.0487804878,-14,0.0608695652,10,0.0434782609,130,-0.6341463415
1840505,19765.625,-10000,6.1312078479,-1296,-0.7946045371,-13840,8.4855916616,62,19.3292682927,-317,-3.7804878049,-1243,75.7926829268,-17,0.0739130435,15,0.0652173913,131,-0.6390243902
1841145,19785.15625,-10160,6.2293071735,-1264,-0.774984672,-14160,8.6817903127,-29,16.7682926829,-275,1.7682926829,-961,58.5975609756,-19,0.0826086957,9,0.0391304348,132,-0.643902439
1841785,19804.6875,-9920,6.0821581852,-1200,-0.7357449418,-14144,8.6719803801,-29,16.7682926829,-275,1.7682926829,-961,58.5975609756,-19,0.0826086957,11,0.047826087,131,-0.6390243902
1842425,19824.21875,-10384,6.3666462293,-1200,-0.7357449418,-14000,8.5836909871,6,11.6463414634,-191,-0.3658536585,-661,40.3048780488,-18,0.0782608696,12,0.052173913,130,-0.6341463415
1843065,19843.75,-11408,6.9944819129,-1632,-1.0006131208,-13904,8.5248313918,6,11.6463414634,-191,-0.3658536585,-661,40.3048780488,-18,0.0782608696,11,0.047826087,130,-0.6341463415
1843705,19863.28125,-12288,7.5340282036,-1888,-1.1575720417,-13872,8.5052115267,-15,6.4024390244,-105,0.9146341463,-317,19.3292682927,-21,0.0913043478,11,0.047826087,131,-0.6390243902
1844345,19882.8125,-12384,7.5928877989,-1824,-1.1183323115,-13696,8.3973022685,-333,3.5975609756,-59,20.3048780488,25,-1.5243902439,-20,0.0869565217,16,0.0695652174,133,-0.6487804878
1844985,19902.34375,-11696,7.171060699,-1856,-1.1379521766,-13520,8.2893930104,-333,3.5975609756,-59,20.3048780488,25,-1.5243902439,-23,0.1,16,0.0695652174,131,-0.6390243902
1845625,19921.875,-11056,6.7786633967,-1888,-1.1575720417,-13488,8.2697731453,-289,-1.4024390244,23,17.6219512195,505,-30.7926829268,-19,0.0826086957,11,0.047826087,132,-0.643902439
1846265,19941.40625,-10896,6.6805640711,-2016,-1.2360515021,-13568,8.3188228081,33,-9.2682926829,152,-2.012195122,980,-59.756097561,-21,0.0913043478,14,0.0608695652,132,-0.643902439
1846905,19960.9375,-10912,6.6903740037,-2336,-1.4322501533,-13904,8.5248313918,33,-9.2682926829,152,-2.012195122,980,-59.756097561,-20,0.0869565217,16,0.0695652174,132,-0.643902439
1847545,19980.46875,-10512,6.4451256898,-2592,-1.5892090742,-14416,8.8387492336,83,-16.4024390244,269,-5.0609756098,1338,-81.5853658537,-18,0.0782608696,7,0.0304347826,133,-0.6487804878
1848185,20000,-10320,6.3274064991,-2512,-1.5401594114,-14528,8.9074187615,83,-16.4024390244,269,-5.0609756098,1338,-81.5853658537,-15,0.0652173913,8,0.0347826087,133,-0.6487804878
1848825,20019.53125,-10368,6.3568362968,-2736,-1.6774984672,-14512,8.8976088289,108,-20.3658536585,334,-6.5853658537,1716,-104.6341463415,-15,0.0652173913,8,0.0347826087,131,-0.6390243902
1849465,20039.0625,-9856,6.0429184549,-3232,-1.9816063765,-14928,9.1526670754,82,-23.3536585366,383,-5,2000,-121.9512195122,-13,0.0565217391,3,0.0130434783,131,-0.6390243902
1850105,20058.59375,-8992,5.5131820969,-3296,-2.0208461067,-15296,9.3782955242,82,-23.3536585366,383,-5,2000,-121.9512195122,-10,0.0434782609,1,0.0043478261,131,-0.6390243902
1850745,20078.125,-8512,5.2188841202,-3184,-1.9521765788,-14976,9.1820968731,63,-24.2682926829,398,-3.8414634146,2301,-140.3048780488,-7,0.0304347826,-2,-0.0086956522,130,-0.6341463415
1851385,20097.65625,-8560,5.2483139178,-3376,-2.0698957695,-14448,8.8583690987,63,-24.2682926829,398,-3.8414634146,2301,-140.3048780488,-6,0.0260869565,-1,-0.0043478261,131,-0.6390243902
1852025,20117.1875,-7952,4.8755364807,-3792,-2.3249540159,-14848,9.1036174126,121,-28.5975609756,469,-7.3780487805,2493,-152.012195122,-5,0.0217391304,-6,-0.0260869565,131,-0.6390243902
1852665,20136.71875,-6752,4.1397915389,-4064,-2.4917228694,-15392,9.4371551196,48,-31.6463414634,519,-2.9268292683,2612,-159.2682926829,-4,0.0173913043,-8,-0.0347826087,132,-0.643902439
1853305,20156.25,-6128,3.7572041692,-3984,-2.4426732066,-15344,9.4077253219,48,-31.6463414634,519,-2.9268292683,2612,-159.2682926829,-2,0.0086956522,-17,-0.0739130435,132,-0.643902439
1853945,20175.78125,-6336,3.8847332925,-3952,-2.4230533415,-14976,9.1820968731,356,-36.5243902439,599,-21.7073170732,2830,-172.5609756098,-1,0.0043478261,-14,-0.0608695652,130,-0.6341463415
1854585,20195.3125,-6784,4.159411404,-4144,-2.5407725322,-15120,9.2703862661,359,-40.9146341463,671,-21.8902439024,2943,-179.4512195122,2,-0.0086956522,-23,-0.1,129,-0.6292682927
1855225,20214.84375,-6176,3.7866339669,-4688,-2.8743102391,-15552,9.5352544451,359,-40.9146341463,671,-21.8902439024,2943,-179.4512195122,3,-0.0130434783,-26,-0.1130434783,130,-0.6341463415
1855865,20234.375,-5344,3.2765174739,-4880,-2.9920294298,-15712,9.6333537707,38,-39.6341463415,650,-2.3170731707,3024,-184.3902439024,5,-0.0217391304,-32,-0.1391304348,131,-0.6390243902
1856505,20253.90625,-4592,2.8154506438,-4912,-3.0116492949,-15536,9.5254445126,38,-39.6341463415,650,-2.3170731707,3024,-184.3902439024,6,-0.0260869565,-31,-0.1347826087,130,-0.6341463415
1857145,20273.4375,-4464,2.7369711833,-4912,-3.0116492949,-15536,9.5254445126,115,-40.3048780488,661,-7.012195122,3040,-185.3658536585,3,-0.0130434783,-40,-0.1739130435,131,-0.6390243902
1857785,20292.96875,-4080,2.501532802,-4848,-2.9724095647,-15648,9.5941140405,79,-40.7926829268,669,-4.8170731707,3031,-184.8170731707,4,-0.0173913043,-39,-0.1695652174,131,-0.6390243902
1858425,20312.5,-3424,2.0993255671,-5024,-3.0803188228,-15936,9.7706928265,79,-40.7926829268,669,-4.8170731707,3031,-184.8170731707,4,-0.0173913043,-46,-0.2,132,-0.643902439
1859065,20332.03125,-2688,1.6480686695,-5040,-3.0901287554,-16064,9.8491722869,82,-39.1463414634,642,-5,3048,-185.8536585366,4,-0.0173913043,-53,-0.2304347826,133,-0.6487804878
1859705,20351.5625,-2448,1.5009196812,-4560,-2.7958307787,-15952,9.780502759,82,-39.1463414634,642,-5,3048,-185.8536585366,4,-0.0173913043,-51,-0.2217391304,130,-0.6341463415
1860345,20371.09375,-2384,1.461679951,-4112,-2.5211526671,-15872,9.7314530963,163,-38.2317073171,627,-9.9390243902,2923,-178.2317073171,3,-0.0130434783,-58,-0.252173913,132,-0.643902439
1860985,20390.625,-1680,1.0300429185,-4352,-2.6683016554,-16256,9.9668914776,-28,-35.3658536585,580,1.7073170732,2811,-171.4024390244,2,-0.0086956522,-61,-0.2652173913,133,-0.6487804878
1861625,20410.15625,-1056,0.6474555487,-4288,-2.6290619252,-16160,9.9080318823,-28,-35.3658536585,580,1.7073170732,2811,-171.4024390244,-1,0.0043478261,-65,-0.2826086957,134,-0.6536585366
1862265,20429.6875,-672,0.4120171674,-3840,-2.3543838136,-15888,9.7412630288,55,-32.1951219512,528,-3.3536585366,2584,-157.5609756098,0,0,-72,-0.3130434783,136,-0.6634146341
1862905,20449.21875,-496,0.3041079093,-2960,-1.814837523,-15712,9.6333537707,55,-32.1951219512,528,-3.3536585366,2584,-157.5609756098,-4,0.0173913043,-69,-0.3,135,-0.6585365854
1863545,20468.75,-192,0.1177191907,-2640,-1.6186388719,-15808,9.692213366,96,-29.756097561,488,-5.8536585366,2355,-143.5975609756,-4,0.0173913043,-75,-0.3260869565,136,-0.6634146341
1864185,20488.28125,-48,0.0294297977,-2800,-1.7167381974,-16176,9.9178418148,109,-28.1097560976,461,-6.6463414634,2177,-132.743902439,-6,0.0260869565,-80,-0.347826087,137,-0.6682926829
1864825,20507.8125,-48,0.0294297977,-2736,-1.6774984672,-16016,9.8197424893,109,-28.1097560976,461,-6.6463414634,2177,-132.743902439,-9,0.0391304348,-84,-0.3652173913,139,-0.6780487805
1865465,20527.34375,-144,0.088289393,-2192,-1.3439607603,-15760,9.6627835684,101,-25.6707317073,421,-6.1585365854,1952,-119.0243902439,-8,0.0347826087,-84,-0.3652173913,137,-0.6682926829
1866105,20546.875,32,-0.0196198651,-1696,-1.039852851,-15776,9.6725935009,-47,-24.756097561,406,2.8658536585,1790,-109.1463414634,-11,0.047826087,-86,-0.3739130435,138,-0.6731707317
1866745,20566.40625,352,-0.2158185162,-1536,-0.9417535254,-15888,9.7412630288,-47,-24.756097561,406,2.8658536585,1790,-109.1463414634,-14,0.0608695652,-87,-0.3782608696,138,-0.6731707317
1867385,20585.9375,416,-0.2550582465,-1280,-0.7847946045,-15696,9.6235438381,-14,-25.243902439,414,0.8536585366,1632,-99.512195122,-15,0.0652173913,-90,-0.3913043478,140,-0.6829268293
1868025,20605.46875,576,-0.353157572,-1168,-0.7161250766,-15696,9.6235438381,-14,-25.243902439,414,0.8536585366,1632,-99.512195122,-15,0.0652173913,-91,-0.3956521739,140,-0.6829268293
1868665,20625,960,-0.5885959534,-880,-0.5395462906,-16000,9.8099325567,-112,-23.9024390244,392,6.8292682927,1440,-87.8048780488,-19,0.0826086957,-91,-0.3956521739,142,-0.6926829268
1869305,20644.53125,1424,-0.8730839975,-768,-0.4708767627,-16320,10.0061312078,-73,-23.8414634146,391,4.4512195122,1336,-81.4634146341,-21,0.0913043478,-87,-0.3782608696,141,-0.687804878
1869945,20664.0625,1760,-1.0790925812,-688,-0.4218270999,-16496,10.114040466,-73,-23.8414634146,391,4.4512195122,1336,-81.4634146341,-23,0.1,-90,-0.3913043478,143,-0.6975609756
1870585,20683.59375,2288,-1.4028203556,-352,-0.2158185162,-16592,10.1729000613,43,-21.7682926829,357,-2.6219512195,1174,-71.5853658537,-22,0.0956521739,-95,-0.4130434783,144,-0.7024390244
1871225,20703.125,2432,-1.4911097486,-64,-0.0392397302,-16752,10.2709993869,43,-21.7682926829,357,-2.6219512195,1174,-71.5853658537,-24,0.1043478261,-94,-0.4086956522,146,-0.712195122
1871865,20722.65625,2672,-1.638258737,-128,-0.0784794605,-17264,10.5849172287,200,-21.8902439024,359,-12.1951219512,1017,-62.012195122,-26,0.1130434783,-94,-0.4086956522,143,-0.6975609756
1872505,20742.1875,2816,-1.72654813,-176,-0.1079092581,-17632,10.8105456775,214,-15.6707317073,257,-13.0487804878,755,-46.0365853659,-25,0.1086956522,-97,-0.4217391304,146,-0.712195122
1873145,20761.71875,2960,-1.814837523,288,0.176578786,-17728,10.8694052728,214,-15.6707317073,257,-13.0487804878,755,-46.0365853659,-27,0.1173913043,-95,-0.4130434783,144,-0.7024390244
1873785,20781.25,2880,-1.7657878602,672,0.4120171674,-17808,10.9184549356,91,-10.3048780488,169,-5.5487804878,461,-28.1097560976,-27,0.1173913043,-94,-0.4086956522,144,-0.7024390244
1874425,20800.78125,2992,-1.8344573881,592,0.3629675046,-17808,10.9184549356,-81,-3.4146341463,56,4.9390243902,107,-6.5243902439,-28,0.1217391304,-95,-0.4130434783,145,-0.7073170732
1875065,20820.3125,3280,-2.0110361741,432,0.264868179,-17888,10.9675045984,-81,-3.4146341463,56,4.9390243902,107,-6.5243902439,-27,0.1173913043,-97,-0.4217391304,146,-0.712195122
1875705,20839.84375,3424,-2.0993255671,256,0.1569589209,-17808,10.9184549356,-63,3.9634146341,-65,3.8414634146,-246,15,-29,0.1260869565,-94,-0.4086956522,144,-0.7024390244
1876345,20859.375,2992,-1.8344573881,368,0.2256284488,-17600,10.7909258124,-63,3.9634146341,-65,3.8414634146,-246,15,-27,0.1173913043,-94,-0.4086956522,145,-0.7073170732
1876985,20878.90625,2384,-1.461679951,128,0.0784794605,-17312,10.6143470264,9,9.0243902439,-148,-0.5487804878,-539,32.8658536585,-25,0.1086956522,-93,-0.4043478261,144,-0.7024390244
1877625,20898.4375,1968,-1.2066217045,-96,-0.0588595953,-17088,10.4770079706,-74,13.6585365854,-224,4.512195122,-764,46.5853658537,-27,0.1173913043,-95,-0.4130434783,145,-0.7073170732
1878265,20917.96875,1696,-1.039852851,-224,-0.1373390558,-16880,10.3494788473,-74,13.6585365854,-224,4.512195122,-764,46.5853658537,-26,0.1130434783,-95,-0.4130434783,145,-0.7073170732
1878905,20937.5,1328,-0.8142244022,-320,-0.1961986511,-16880,10.3494788473,-159,14.756097561,-242,9.6951219512,-905,55.1829268293,-24,0.1043478261,-95,-0.4130434783,144,-0.7024390244
1879545,20957.03125,1344,-0.8240343348,-528,-0.3237277744,-16928,10.378908645,-159,14.756097561,-242,9.6951219512,-905,55.1829268293,-21,0.0913043478,-94,-0.4086956522,145,-0.7073170732
1880185,20976.5625,1248,-0.7651747394,-688,-0.4218270999,-16768,10.2808093194,-235,17.1951219512,-282,14.3292682927,-1065,64.9390243902,-22,0.0956521739,-89,-0.3869565217,145,-0.7073170732
1880825,20996.09375,1152,-0.7063151441,-784,-0.4806866953,-16560,10.1532801962,-232,18.7804878049,-308,14.1463414634,-1231,75.0609756098,-21,0.0913043478,-86,-0.3739130435,144,-0.7024390244
1881465,21015.625,1040,-0.6376456162,-1072,-0.6572654813,-16560,10.1532801962,-232,18.7804878049,-308,14.1463414634,-1231,75.0609756098,-21,0.0913043478,-87,-0.3782608696,144,-0.7024390244
1882105,21035.15625,1072,-0.6572654813,-1360,-0.8338442673,-16688,10.2317596567,-209,20.1219512195,-330,12.743902439,-1388,84.6341463415,-17,0.0739130435,-89,-0.3869565217,144,-0.7024390244
1882745,21054.6875,1056,-0.6474555487,-1696,-1.039852851,-16560,10.1532801962,-285,21.5243902439,-353,17.3780487805,-1562,95.243902439,-19,0.0826086957,-84,-0.3652173913,144,-0.7024390244
1883385,21074.21875,848,-0.5199264255,-1936,-1.1870018394,-16432,10.0748007357,-285,21.5243902439,-353,17.3780487805,-1562,95.243902439,-18,0.0782608696,-83,-0.3608695652,144,-0.7024390244
1884025,21093.75,752,-0.4610668302,-2112,-1.2949110975,-16480,10.1042305334,-347,22.987804878,-377,21.1585365854,-1781,108.5975609756,-16,0.0695652174,-86,-0.3739130435,145,-0.7073170732
1884665,21113.28125,928,-0.5689760883,-2272,-1.3930104231,-16224,9.9472716125,-347,22.987804878,-377,21.1585365854,-1781,108.5975609756,-15,0.0652173913,-80,-0.347826087,144,-0.7024390244
1885305,21132.8125,1040,-0.6376456162,-2624,-1.6088289393,-16272,9.9767014102,-296,24.0243902439,-394,18.0487804878,-1931,117.743902439,-14,0.0608695652,-76,-0.3304347826,142,-0.6926829268
1885945,21152.34375,992,-0.6082158185,-2880,-1.7657878602,-16000,9.8099325567,-99,23.7804878049,-390,6.0365853659,-2053,125.1829268293,-12,0.052173913,-74,-0.3217391304,142,-0.6926829268
1886585,21171.875,448,-0.2746781116,-3088,-1.8933169834,-15808,9.692213366,-99,23.7804878049,-390,6.0365853659,-2053,125.1829268293,-10,0.0434782609,-76,-0.3304347826,143,-0.6975609756
1887225,21191.40625,-208,0.1275291232,-3264,-2.0012262416,-16224,9.9472716125,53,23.5975609756,-387,-3.2317073171,-2219,135.3048780488,-7,0.0304347826,-72,-0.3130434783,144,-0.7024390244
1887865,21210.9375,-368,0.2256284488,-3456,-2.1189454323,-16144,9.8982219497,53,23.5975609756,-387,-3.2317073171,-2219,135.3048780488,-9,0.0391304348,-67,-0.2913043478,141,-0.687804878
1888505,21230.46875,-912,0.5591661557,-3856,-2.3641937462,-15952,9.780502759,92,27.0731707317,-444,-5.6097560976,-2334,142.3170731707,-4,0.0173913043,-64,-0.2782608696,141,-0.687804878
1889145,21250,-1632,1.0006131208,-4208,-2.5800122624,-15760,9.6627835684,171,28.8414634146,-473,-10.4268292683,-2415,147.256097561,-6,0.0260869565,-60,-0.2608695652,138,-0.6731707317
1889785,21269.53125,-2624,1.6088289393,-3840,-2.3543838136,-15728,9.6431637032,171,28.8414634146,-473,-10.4268292683,-2415,147.256097561,-4,0.0173913043,-60,-0.2608695652,140,-0.6829268293
1890425,21289.0625,-2640,1.6186388719,-3904,-2.3936235438,-15952,9.780502759,25,31.4024390244,-515,-1.5243902439,-2593,158.1097560976,-1,0.0043478261,-57,-0.247826087,138,-0.6731707317
1891065,21308.59375,-2272,1.3930104231,-4240,-2.5996321275,-16016,9.8197424893,25,31.4024390244,-515,-1.5243902439,-2593,158.1097560976,2,-0.0086956522,-54,-0.2347826087,137,-0.6682926829
1891705,21328.125,-2896,1.7755977928,-4592,-2.8154506438,-15632,9.5843041079,75,33.7195121951,-553,-4.5731707317,-2688,163.9024390244,0,0,-49,-0.2130434783,136,-0.6634146341
1892345,21347.65625,-3616,2.2170447578,-4624,-2.8350705089,-15664,9.603923973,163,34.6951219512,-569,-9.9390243902,-2753,167.8658536585,1,-0.0043478261,-43,-0.1869565217,136,-0.6634146341
1892985,21367.1875,-3856,2.3641937462,-4352,-2.6683016554,-15712,9.6333537707,163,34.6951219512,-569,-9.9390243902,-2753,167.8658536585,0,0,-41,-0.1782608696,133,-0.6487804878
1893625,21386.71875,-3920,2.4034334764,-4160,-2.5505824647,-15392,9.4371551196,54,37.3170731707,-612,-3.2926829268,-2743,167.256097561,4,-0.0173913043,-41,-0.1782608696,136,-0.6634146341
1894265,21406.25,-4720,2.8939301042,-4000,-2.4524831392,-15440,9.4665849172,-29,36.2804878049,-595,1.7682926829,-2739,167.012195122,1,-0.0043478261,-33,-0.1434782609,135,-0.6585365854
1894905,21425.78125,-4688,2.8743102391,-3776,-2.3151440834,-15712,9.6333537707,-29,36.2804878049,-595,1.7682926829,-2739,167.012195122,1,-0.0043478261,-30,-0.1304347826,135,-0.6585365854
1895545,21445.3125,-3968,2.4328632741,-3664,-2.2464745555,-16000,9.8099325567,-193,35.3658536585,-580,11.7682926829,-2741,167.1341463415,1,-0.0043478261,-30,-0.1304347826,135,-0.6585365854
1896185,21464.84375,-3120,1.9129368486,-3760,-2.3053341508,-16096,9.8687921521,-193,35.3658536585,-580,11.7682926829,-2741,167.1341463415,-1,0.0043478261,-21,-0.0913043478,135,-0.6585365854
1896825,21484.375,-3888,2.3838136113,-3936,-2.413243409,-15712,9.6333537707,288,33.2317073171,-545,-17.5609756098,-2634,160.6097560976,0,0,-20,-0.0869565217,132,-0.643902439
1897465,21503.90625,-5648,3.4629061925,-3632,-2.2268546904,-15440,9.4665849172,383,31.2804878049,-513,-23.3536585366,-2354,143.5365853659,-1,0.0043478261,-15,-0.0652173913,131,-0.6390243902
1898105,21523.4375,-6656,4.0809319436,-3280,-2.0110361741,-15712,9.6333537707,383,31.2804878049,-513,-23.3536585366,-2354,143.5365853659,-3,0.0130434783,-12,-0.052173913,132,-0.643902439
1898745,21542.96875,-6416,3.9337829552,-3104,-1.903126916,-15408,9.4469650521,28,33.2926829268,-546,-1.7073170732,-2230,135.9756097561,-5,0.0217391304,-8,-0.0347826087,130,-0.6341463415
1899385,21562.5,-6320,3.8749233599,-3120,-1.9129368486,-15008,9.2017167382,28,33.2926829268,-546,-1.7073170732,-2230,135.9756097561,-4,0.0173913043,-8,-0.0347826087,130,-0.6341463415
1900025,21582.03125,-6816,4.1790312692,-3120,-1.9129368486,-14720,9.0251379522,-16,30,-492,0.9756097561,-2039,124.3292682927,-4,0.0173913043,-6,-0.0260869565,132,-0.643902439
1900665,21601.5625,-7120,4.3654199877,-3088,-1.8933169834,-14416,8.8387492336,-177,29.2073170732,-479,10.7926829268,-1953,119.0853658537,-9,0.0391304348,-4,-0.0173913043,131,-0.6390243902
1901305,21621.09375,-7280,4.4635193133,-2896,-1.7755977928,-14128,8.6621704476,-177,29.2073170732,-479,10.7926829268,-1953,119.0853658537,-10,0.0434782609,-3,-0.0130434783,134,-0.6536585366
1901945,21640.625,-7424,4.5518087063,-2768,-1.6971183323,-14320,8.7798896383,-213,25.5487804878,-419,12.987804878,-1840,112.1951219512,-9,0.0391304348,-2,-0.0086956522,132,-0.643902439
1902585,21660.15625,-7760,4.75781729,-2576,-1.5793991416,-14144,8.6719803801,-32,23.1707317073,-380,1.9512195122,-1720,104.8780487805,-16,0.0695652174,7,0.0304347826,131,-0.6390243902
1903225,21679.6875,-7776,4.7676272226,-2528,-1.549969344,-14048,8.6131207848,-32,23.1707317073,-380,1.9512195122,-1720,104.8780487805,-13,0.0565217391,8,0.0347826087,133,-0.6487804878
1903865,21699.21875,-8000,4.9049662784,-2512,-1.5401594114,-13872,8.5052115267,201,19.1463414634,-314,-12.256097561,-1571,95.7926829268,-16,0.0695652174,9,0.0391304348,132,-0.643902439
1904505,21718.75,-9072,5.5622317597,-2080,-1.2752912324,-13824,8.475781729,201,19.1463414634,-314,-12.256097561,-1571,95.7926829268,-16,0.0695652174,11,0.047826087,130,-0.6341463415
1905145,21738.28125,-10448,6.4058859595,-1840,-1.128142244,-13936,8.5444512569,434,13.5975609756,-223,-26.4634146341,-1219,74.3292682927,-18,0.0782608696,6,0.0260869565,132,-0.643902439
1905785,21757.8125,-11648,7.1416309013,-2096,-1.2851011649,-13968,8.564071122,253,11.7073170732,-192,-15.4268292683,-884,53.9024390244,-18,0.0782608696,11,0.047826087,131,-0.6390243902
1906425,21777.34375,-12848,7.877375843,-1984,-1.216431637,-13920,8.5346413243,253,11.7073170732,-192,-15.4268292683,-884,53.9024390244,-17,0.0739130435,9,0.0391304348,132,-0.643902439
1907065,21796.875,-12928,7.9264255058,-1680,-1.0300429185,-14032,8.6033108522,-96,7.012195122,-115,5.8536585366,-535,32.6219512195,-17,0.0739130435,11,0.047826087,133,-0.6487804878
1907705,21816.40625,-12528,7.6811771919,-1520,-0.9319435929,-13984,8.5738810546,-96,7.012195122,-115,5.8536585366,-535,32.6219512195,-18,0.0782608696,15,0.0652173913,131,-0.6390243902
1908345,21835.9375,-12368,7.5830778663,-1712,-1.0496627836,-13936,8.5444512569,-142,1.3414634146,-22,8.6585365854,28,-1.7073170732,-18,0.0782608696,14,0.0608695652,130,-0.6341463415
1908985,21855.46875,-12384,7.5928877989,-2144,-1.3145309626,-13936,8.5444512569,69,-4.6341463415,76,-4.2073170732,630,-38.4146341463,-19,0.0826086957,14,0.0608695652,131,-0.6390243902
1909625,21875,-12192,7.4751686082,-2480,-1.5205395463,-13984,8.5738810546,69,-4.6341463415,76,-4.2073170732,630,-38.4146341463,-18,0.0782608696,9,0.0391304348,132,-0.643902439
1910265,21894.53125,-11552,7.0827713059,-2528,-1.549969344,-13984,8.5738810546,3,-10.487804878,172,-0.1829268293,1070,-65.243902439,-15,0.0652173913,12,0.052173913,131,-0.6390243902
1910905,21914.0625,-10800,6.6217044758,-2592,-1.5892090742,-14048,8.6131207848,-86,-15.8536585366,260,5.243902439,1455,-88.7195121951,-14,0.0608695652,9,0.0391304348,131,-0.6390243902
1911545,21933.59375,-10128,6.2096873084,-2752,-1.6873083998,-14224,8.7210300429,-86,-15.8536585366,260,5.243902439,1455,-88.7195121951,-16,0.0695652174,6,0.0260869565,133,-0.6487804878
1912185,21953.125,-9840,6.0331085224,-3056,-1.8736971183,-14272,8.7504598406,-8,-19.8780487805,326,0.487804878,1710,-104.2682926829,-15,0.0652173913,5,0.0217391304,131,-0.6390243902
1912825,21972.65625,-9344,5.7290006131,-3360,-2.0600858369,-14608,8.9564684243,-8,-19.8780487805,326,0.487804878,1710,-104.2682926829,-11,0.047826087,3,0.0130434783,130,-0.6341463415
1913465,21992.1875,-8400,5.1502145923,-3296,-2.0208461067,-15024,9.2115266708,-45,-22.5609756098,370,2.743902439,1913,-116.6463414634,-12,0.052173913,5,0.0217391304,130,-0.6341463415
1914105,22011.71875,-7920,4.8559166156,-3088,-1.8933169834,-14752,9.0447578173,145,-24.1463414634,396,-8.8414634146,2235,-136.2804878049,-8,0.0347826087,-3,-0.0130434783,131,-0.6390243902
1914745,22031.25,-8112,4.9736358063,-3376,-2.0698957695,-14272,8.7504598406,145,-24.1463414634,396,-8.8414634146,2235,-136.2804878049,-5,0.0217391304,-4,-0.0173913043,131,-0.6390243902
1915385,22050.78125,-7984,4.8951563458,-3920,-2.4034334764,-14704,9.0153280196,175,-29.4512195122,483,-10.6707317073,2396,-146.0975609756,-4,0.0173913043,-9,-0.0391304348,129,-0.6292682927
1916025,22070.3125,-7104,4.3556100552,-4064,-2.4917228694,-15248,9.3488657265,175,-29.4512195122,483,-10.6707317073,2396,-146.0975609756,-4,0.0173913043,-13,-0.0565217391,131,-0.6390243902
1916665,22089.84375,-6656,4.0809319436,-4000,-2.4524831392,-14944,9.162477008,-95,-30.9756097561,508,5.7926829268,2539,-154.8170731707,-2,0.0086956522,-11,-0.047826087,132,-0.643902439
1917305,22109.375,-6672,4.0907418761,-4032,-2.4721030043,-14560,8.9270386266,4,-34.3902439024,564,-0.243902439,2640,-160.9756097561,-1,0.0043478261,-15,-0.0652173913,131,-0.6390243902
1917945,22128.90625,-5904,3.6198651134,-4672,-2.8645003066,-15376,9.427345187,4,-34.3902439024,564,-0.243902439,2640,-160.9756097561,3,-0.0130434783,-22,-0.0956521739,131,-0.6390243902
1918585,22148.4375,-5056,3.0999386879,-4912,-3.0116492949,-15824,9.7020232986,-121,-34.6951219512,569,7.3780487805,2749,-167.6219512195,2,-0.0086956522,-27,-0.1173913043,133,-0.6487804878
1919225,22167.96875,-4960,3.0410790926,-4688,-2.8743102391,-15424,9.4567749847,-121,-34.6951219512,569,7.3780487805,2749,-167.6219512195,2,-0.0086956522,-27,-0.1173913043,131,-0.6390243902
1919865,22187.5,-4944,3.03126916,-4656,-2.854690374,-15280,9.3684855917,73,-33.9634146341,557,-4.4512195122,2831,-172.6219512195,4,-0.0173913043,-33,-0.1434782609,131,-0.6390243902
1920505,22207.03125,-4160,2.5505824647,-5200,-3.1882280809,-15920,9.7608828939,70,-35.1219512195,576,-4.2682926829,2823,-172.1341463415,1,-0.0043478261,-32,-0.1391304348,130,-0.6341463415
1921145,22226.5625,-3840,2.3543838136,-5184,-3.1784181484,-15872,9.7314530963,70,-35.1219512195,576,-4.2682926829,2823,-172.1341463415,6,-0.0260869565,-43,-0.1869565217,134,-0.6536585366
1921785,22246.09375,-4048,2.4819129368,-4816,-2.9527896996,-15600,9.5646842428,264,-34.4512195122,565,-16.0975609756,2849,-173.7195121951,6,-0.0260869565,-43,-0.1869565217,132,-0.643902439
1922425,22265.625,-3744,2.2955242183,-4816,-2.9527896996,-15904,9.7510729614,230,-35.1219512195,576,-14.0243902439,2754,-167.9268292683,6,-0.0260869565,-47,-0.2043478261,132,-0.643902439
1923065,22285.15625,-3280,2.0110361741,-5200,-3.1882280809,-16192,9.9276517474,230,-35.1219512195,576,-14.0243902439,2754,-167.9268292683,4,-0.0173913043,-49,-0.2130434783,132,-0.643902439
1923705,22304.6875,-3472,2.1287553648,-4864,-2.9822194972,-15744,9.6529736358,167,-34.6341463415,568,-10.1829268293,2811,-171.4024390244,2,-0.0086956522,-58,-0.252173913,134,-0.6536585366
1924345,22324.21875,-3328,2.0404659718,-4480,-2.7467811159,-15520,9.51563458,167,-34.6341463415,568,-10.1829268293,2811,-171.4024390244,4,-0.0173913043,-59,-0.2565217391,134,-0.6536585366
1924985,22343.75,-2432,1.4911097486,-4320,-2.6486817903,-15664,9.603923973,-77,-34.2682926829,562,4.6951219512,2664,-162.4390243902,1,-0.0043478261,-60,-0.2608695652,133,-0.6487804878
1925625,22363.28125,-1504,0.9221336603,-4304,-2.6388718578,-15952,9.780502759,-189,-32.3170731707,530,11.5243902439,2609,-159.0853658537,-1,0.0043478261,-66,-0.2869565217,133,-0.6487804878
1926265,22382.8125,-688,0.4218270999,-4080,-2.501532802,-15904,9.7510729614,-189,-32.3170731707,530,11.5243902439,2609,-159.0853658537,-3,0.0130434783,-69,-0.3,137,-0.6682926829
1926905,22402.34375,-288,0.176578786,-3600,-2.2072348253,-15904,9.7510729614,-3,-31.6463414634,519,0.1829268293,2508,-152.9268292683,-3,0.0130434783,-75,-0.3260869565,138,-0.6731707317
1927545,22421.875,-96,0.0588595953,-3376,-2.0698957695,-16224,9.9472716125,-3,-31.6463414634,519,0.1829268293,2508,-152.9268292683,-5,0.0217391304,-78,-0.3391304348,137,-0.6682926829
1928185,22441.40625,256,-0.1569589209,-2992,-1.8344573881,-16256,9.9668914776,131,-30.7926829268,505,-7.987804878,2343,-142.8658536585,-8,0.0347826087,-76,-0.3304347826,140,-0.6829268293
1928825,22460.9375,496,-0.3041079093,-2960,-1.814837523,-16048,9.8393623544,141,-28.3536585366,465,-8.5975609756,2210,-134.756097561,-10,0.0434782609,-81,-0.352173913,139,-0.6780487805
1929465,22480.46875,640,-0.3923973023,-2928,-1.7952176579,-15904,9.7510729614,141,-28.3536585366,465,-8.5975609756,2210,-134.756097561,-10,0.0434782609,-86,-0.3739130435,140,-0.6829268293
1930105,22500,816,-0.5003065604,-2464,-1.5107296137,-16016,9.8197424893,77,-27.1951219512,446,-4.6951219512,1975,-120.4268292683,-13,0.0565217391,-86,-0.3739130435,141,-0.687804878
1930745,22519.53125,1408,-0.863274065,-2016,-1.2360515021,-16096,9.8687921521,-85,-25.1829268293,413,5.1829268293,1725,-105.1829268293,-16,0.0695652174,-86,-0.3739130435,141,-0.687804878
1931385,22539.0625,2272,-1.3930104231,-1824,-1.1183323115,-16320,10.0061312078,-85,-25.1829268293,413,5.1829268293,1725,-105.1829268293,-18,0.0782608696,-85,-0.3695652174,141,-0.687804878
1932025,22558.59375,2784,-1.7069282649,-1424,-0.8730839975,-16352,10.025751073,16,-22.8658536585,375,-0.9756097561,1461,-89.0853658537,-18,0.0782608696,-92,-0.4,143,-0.6975609756
1932665,22578.125,2944,-1.8050275904,-880,-0.5395462906,-16336,10.0159411404,16,-22.8658536585,375,-0.9756097561,1461,-89.0853658537,-21,0.0913043478,-88,-0.3826086957,142,-0.6926829268
1933305,22597.65625,3184,-1.9521765788,-672,-0.4120171674,-16704,10.2415695892,61,-22.5,369,-3.7195121951,1185,-72.256097561,-20,0.0869565217,-90,-0.3913043478,143,-0.6975609756
1933945,22617.1875,3264,-2.0012262416,-576,-0.353157572,-17088,10.4770079706,48,-19.4512195122,319,-2.9268292683,906,-55.243902439,-24,0.1043478261,-90,-0.3913043478,143,-0.6975609756
1934585,22636.71875,2928,-1.7952176579,-432,-0.264868179,-17376,10.6535867566,48,-19.4512195122,319,-2.9268292683,906,-55.243902439,-22,0.0956521739,-93,-0.4043478261,145,-0.7073170732
1935225,22656.25,2992,-1.8344573881,-224,-0.1373390558,-17520,10.7418761496,-123,-13.5365853659,222,7.5,569,-34.6951219512,-25,0.1086956522,-94,-0.4086956522,145,-0.7073170732
1935865,22675.78125,3632,-2.2268546904,-112,-0.0686695279,-17872,10.9576946658,-123,-13.5365853659,222,7.5,569,-34.6951219512,-27,0.1173913043,-92,-0.4,144,-0.7024390244
1936505,22695.3125,4128,-2.5309625996,16,0.0098099326,-17920,10.9871244635,-145,-5.487804878,90,8.8414634146,247,-15.0609756098,-27,0.1173913043,-88,-0.3826086957,144,-0.7024390244
1937145,22714.84375,3920,-2.4034334764,80,0.0490496628,-17840,10.9380748007,14,0.0609756098,-1,-0.8536585366,-6,0.3658536585,-27,0.1173913043,-91,-0.3956521739,145,-0.7073170732
1937785,22734.375,3504,-2.1483752299,16,0.0098099326,-17904,10.977314531,14,0.0609756098,-1,-0.8536585366,-6,0.3658536585,-26,0.1130434783,-95,-0.4130434783,146,-0.712195122
1938425,22753.90625,3360,-2.0600858369,48,0.0294297977,-17792,10.9086450031,-72,6.0975609756,-100,4.3902439024,-308,18.7804878049,-26,0.1130434783,-90,-0.3913043478,145,-0.7073170732
1939065,22773.4375,3232,-1.9816063765,-240,-0.1471489884,-17744,10.8792152054,-72,6.0975609756,-100,4.3902439024,-308,18.7804878049,-24,0.1043478261,-94,-0.4086956522,146,-0.712195122
1939705,22792.96875,3296,-2.0208461067,-400,-0.2452483139,-17728,10.8694052728,-107,10.6097560976,-174,6.5243902439,-575,35.0609756098,-25,0.1086956522,-89,-0.3869565217,145,-0.7073170732
1940345,22812.5,3216,-1.9717964439,-416,-0.2550582465,-17408,10.6732066217,-41,14.5731707317,-239,2.5,-786,47.9268292683,-23,0.1,-94,-0.4086956522,145,-0.7073170732
1940985,22832.03125,2880,-1.7657878602,-656,-0.4022072348,-17248,10.5751072961,-41,14.5731707317,-239,2.5,-786,47.9268292683,-23,0.1,-93,-0.4043478261,145,-0.7073170732
1941625,22851.5625,2576,-1.5793991416,-848,-0.5199264255,-17040,10.4475781729,-111,17.6829268293,-290,6.7682926829,-1037,63.2317073171,-23,0.1,-86,-0.3739130435,145,-0.7073170732
1942265,22871.09375,2752,-1.6873083998,-1104,-0.6768853464,-16912,10.3690987124,-254,21.8902439024,-359,15.487804878,-1329,81.0365853659,-22,0.0956521739,-88,-0.3826086957,145,-0.7073170732
1942905,22890.625,2672,-1.638258737,-1472,-0.9025137952,-16544,10.1434702636,-254,21.8902439024,-359,15.487804878,-1329,81.0365853659,-20,0.0869565217,-90,-0.3913043478,145,-0.7073170732
1943545,22910.15625,2336,-1.4322501533,-1728,-1.0594727161,-16432,10.0748007357,-262,22.4390243902,-368,15.9756097561,-1591,97.012195122,-17,0.0739130435,-88,-0.3826086957,145,-0.7073170732
1944185,22929.6875,2016,-1.2360515021,-2064,-1.2654812998,-16560,10.1532801962,-262,22.4390243902,-368,15.9756097561,-1591,97.012195122,-17,0.0739130435,-84,-0.3652173913,143,-0.6975609756
1944825,22949.21875,1904,-1.1673819742,-2368,-1.4518700184,-16432,10.0748007357,-267,24.9390243902,-409,16.2804878049,-1836,111.9512195122,-15,0.0652173913,-82,-0.3565217391,143,-0.6975609756
1945465,22968.75,1472,-0.9025137952,-2848,-1.7461679951,-16272,9.9767014102,-177,25,-410,10.7926829268,-2017,122.987804878,-14,0.0608695652,-82,-0.3565217391,143,-0.6975609756
1946105,22988.28125,992,-0.6082158185,-3072,-1.8835070509,-16160,9.9080318823,-177,25,-410,10.7926829268,-2017,122.987804878,-14,0.0608695652,-80,-0.347826087,144,-0.7024390244
1946745,23007.8125,512,-0.3139178418,-3344,-2.0502759044,-16208,9.93746168,-151,26.7682926829,-439,9.2073170732,-2206,134.512195122,-10,0.0434782609,-75,-0.3260869565,141,-0.687804878
1947385,23027.34375,96,-0.0588595953,-3552,-2.1778050276,-16224,9.9472716125,-151,26.7682926829,-439,9.2073170732,-2206,134.512195122,-9,0.0391304348,-72,-0.3130434783,141,-0.687804878
1948025,23046.875,-240,0.1471489884,-3712,-2.2759043532,-16192,9.9276517474,-94,29.3292682927,-481,5.7317073171,-2382,145.243902439,-9,0.0391304348,-73,-0.3173913043,143,-0.6975609756
1948665,23066.40625,-656,0.4022072348,-4000,-2.4524831392,-15904,9.7510729614,4,30.9146341463,-507,-0.243902439,-2499,152.3780487805,-8,0.0347826087,-68,-0.2956521739,141,-0.687804878
1949305,23085.9375,-1376,0.8436541999,-4160,-2.5505824647,-15696,9.6235438381,4,30.9146341463,-507,-0.243902439,-2499,152.3780487805,-4,0.0173913043,-65,-0.2826086957,140,-0.6829268293
1949945,23105.46875,-2272,1.3930104231,-4144,-2.5407725322,-15856,9.7216431637,108,32.0731707317,-526,-6.5853658537,-2636,160.7317073171,-3,0.0130434783,-58,-0.252173913,138,-0.6731707317
1950585,23125,-2448,1.5009196812,-4384,-2.6879215205,-16080,9.8589822195,-13,37.743902439,-619,0.7926829268,-2808,171.2195121951,-3,0.0130434783,-57,-0.247826087,138,-0.6731707317
1951225,23144.53125,-2320,1.4224402207,-4720,-2.8939301042,-15824,9.7020232986,-13,37.743902439,-619,0.7926829268,-2808,171.2195121951,-3,0.0130434783,-49,-0.2130434783,138,-0.6731707317
1951865,23164.0625,-2400,1.4714898835,-5056,-3.0999386879,-15776,9.6725935009,99,38.0487804878,-624,-6.0365853659,-2840,173.1707317073,-1,0.0043478261,-52,-0.2260869565,138,-0.6731707317
1952505,23183.59375,-2592,1.5892090742,-5056,-3.0999386879,-15952,9.780502759,99,38.0487804878,-624,-6.0365853659,-2840,173.1707317073,2,-0.0086956522,-49,-0.2130434783,137,-0.6682926829
1953145,23203.125,-2592,1.5892090742,-4864,-2.9822194972,-16288,9.9865113427,325,41.1585365854,-675,-19.8170731707,-2998,182.8048780488,0,0,-42,-0.1826086957,137,-0.6682926829
1953785,23222.65625,-2464,1.5107296137,-5152,-3.1587982833,-16128,9.8884120172,494,46.0365853659,-755,-30.1219512195,-3076,187.5609756098,2,-0.0086956522,-37,-0.1608695652,135,-0.6585365854
1954425,23242.1875,-3056,1.8736971183,-5648,-3.4629061925,-16064,9.8491722869,494,46.0365853659,-755,-30.1219512195,-3076,187.5609756098,3,-0.0130434783,-39,-0.1695652174,135,-0.6585365854
1955065,23261.71875,-4144,2.5407725322,-5696,-3.4923359902,-15744,9.6529736358,540,52.012195122,-853,-32.9268292683,-3168,193.1707317073,2,-0.0086956522,-24,-0.1043478261,131,-0.6390243902
1955705,23281.25,-4912,3.0116492949,-5344,-3.2765174739,-15408,9.4469650521,540,52.012195122,-853,-32.9268292683,-3168,193.1707317073,4,-0.0173913043,-26,-0.1130434783,131,-0.6390243902
1956345,23300.78125,-5088,3.119558553,-5104,-3.1293684856,-15376,9.427345187,243,57.1341463415,-937,-14.8170731707,-3284,200.243902439,3,-0.0130434783,-21,-0.0913043478,129,-0.6292682927
1956985,23320.3125,-5424,3.3255671367,-4864,-2.9822194972,-15168,9.2998160638,63,55.7317073171,-914,-3.8414634146,-3192,194.6341463415,3,-0.0130434783,-15,-0.0652173913,128,-0.6243902439
1957625,23339.84375,-5648,3.4629061925,-4608,-2.8252605763,-15120,9.2703862661,63,55.7317073171,-914,-3.8414634146,-3192,194.6341463415,0,0,-15,-0.0652173913,131,-0.6390243902
1958265,23359.375,-5632,3.45309626,-4272,-2.6192519926,-15072,9.2409564684,75,48.9634146341,-803,-4.5731707317,-3001,182.987804878,0,0,-10,-0.0434782609,130,-0.6341463415
1958905,23378.90625,-5568,3.4138565297,-3984,-2.4426732066,-15168,9.2998160638,418,43.7195121951,-717,-25.487804878,-2757,168.1097560976,-3,0.0130434783,-5,-0.0217391304,129,-0.6292682927
1959545,23398.4375,-6224,3.8160637646,-3664,-2.2464745555,-14800,9.074187615,418,43.7195121951,-717,-25.487804878,-2757,168.1097560976,-4,0.0173913043,-4,-0.0173913043,130,-0.6341463415
1960185,23417.96875,-7312,4.4831391784,-3168,-1.9423666462,-14560,8.9270386266,585,38.1707317073,-626,-35.6707317073,-2388,145.6097560976,-7,0.0304347826,0,0,129,-0.6292682927
1960825,23437.5,-8144,4.9932556714,-3008,-1.8442673207,-14608,8.9564684243,585,38.1707317073,-626,-35.6707317073,-2388,145.6097560976,-5,0.0217391304,1,0.0043478261,128,-0.6243902439
1961465,23457.03125,-8144,4.9932556714,-3248,-1.991416309,-14672,8.9957081545,295,36.2195121951,-594,-17.987804878,-2092,127.5609756098,-8,0.0347826087,5,0.0217391304,127,-0.6195121951
1962105,23476.5625,-8640,5.2973635806,-3136,-1.9227467811,-14304,8.7700797057,117,37.5609756098,-616,-7.1341463415,-1824,111.2195121951,-9,0.0391304348,5,0.0217391304,127,-0.6195121951
1962745,23496.09375,-9472,5.8074800736,-2656,-1.6284488044,-13696,8.3973022685,117,37.5609756098,-616,-7.1341463415,-1824,111.2195121951,-13,0.0565217391,13,0.0565217391,127,-0.6195121951
1963385,23515.625,-9632,5.9055793991,-2672,-1.638258737,-13488,8.2697731453,-327,32.012195122,-525,19.9390243902,-1633,99.5731707317,-12,0.052173913,9,0.0391304348,127,-0.6195121951
1964025,23535.15625,-8912,5.4641324341,-2880,-1.7657878602,-13536,8.299202943,-327,32.012195122,-525,19.9390243902,-1633,99.5731707317,-16,0.0695652174,14,0.0608695652,128,-0.6243902439
1964665,23554.6875,-8896,5.4543225015,-2672,-1.638258737,-13632,8.3580625383,-379,26.0975609756,-428,23.1097560976,-1516,92.4390243902,-18,0.0782608696,15,0.0652173913,130,-0.6341463415
1965305,23574.21875,-9360,5.7388105457,-2464,-1.5107296137,-13472,8.2599632128,-43,17.8658536585,-293,2.6219512195,-1238,75.487804878,-20,0.0869565217,18,0.0782608696,130,-0.6341463415
1965945,23593.75,-10096,6.1900674433,-2496,-1.5303494788,-13408,8.2207234825,-43,17.8658536585,-293,2.6219512195,-1238,75.487804878,-20,0.0869565217,15,0.0652173913,130,-0.6341463415
