Sample, Time, ACCX, ACCY, ACCZ, MAGX, MAGY, MAGZ, GYRX, GYRY, GYRZ
0,47999.489000,-66.080,8.095,-238.208,16.400,-411.957,-297.640,3.500,-14.240,-12.220
1,47999.516000,-64.122,8.095,-238.208,11.489,-406.106,-299.529,5.500,-3.240,-10.220
2,47999.543000,-65.101,9.107,-236.232,9.523,-407.057,-298.508,6.500,-10.240,-11.220
3,47999.552000,-64.122,7.083,-237.220,15.386,-408.079,-297.626,3.500,-22.240,-11.220
4,47999.578000,-65.101,7.083,-239.197,19.317,-408.113,-298.680,-0.500,-12.240,-10.220
5,47999.596000,-65.101,6.071,-237.220,11.490,-409.978,-297.555,2.500,6.760,-8.220
6,47999.624000,-63.143,6.071,-235.243,11.473,-411.915,-295.584,4.500,11.760,-9.220
7,47999.644000,-61.185,6.071,-237.220,25.223,-410.100,-299.767,2.500,-0.240,-9.220
8,47999.672000,-63.143,8.095,-238.208,15.421,-410.012,-298.609,-7.500,-24.240,-9.220
9,47999.700000,-66.080,8.095,-238.208,14.469,-410.970,-299.576,-11.500,-20.240,-6.220
10,47999.704000,-63.143,8.095,-235.243,16.461,-412.922,-300.593,-12.500,-2.240,-5.220
11,47999.730000,-62.164,9.107,-238.208,20.322,-411.024,-298.695,-13.500,-14.240,-11.220
12,47999.747000,-67.059,9.107,-237.220,13.438,-409.028,-297.591,-13.500,-1.240,-10.220
13,47999.761000,-66.080,8.095,-239.197,11.568,-410.941,-301.493,-8.500,27.760,-0.220
14,47999.786000,-62.164,7.083,-238.208,13.482,-411.929,-298.573,-8.500,11.760,-1.220
15,47999.807000,-65.101,7.083,-238.208,14.460,-410.003,-299.577,-8.500,3.760,-1.220
16,47999.830000,-64.122,6.071,-241.174,16.417,-410.020,-299.611,-5.500,8.760,-2.220
17,47999.845000,-63.143,8.095,-240.185,22.262,-409.107,-298.731,-3.500,8.760,-1.220
18,47999.865000,-66.080,7.083,-239.197,16.460,-410.986,-301.580,-6.500,-3.240,-2.220
19,47999.883000,-65.101,7.083,-238.208,15.412,-407.109,-299.597,-7.500,11.760,-3.220
20,47999.926000,-63.143,9.107,-240.185,15.420,-406.141,-300.583,-5.500,15.760,-4.220
21,47999.945000,-62.164,7.083,-238.208,19.361,-409.079,-300.649,-8.500,-4.240,-7.220
22,47999.951000,-65.101,6.071,-241.174,21.327,-412.000,-299.696,-10.500,-11.240,-6.220
23,47999.970000,-66.080,8.095,-240.185,22.271,-410.075,-298.730,-6.500,6.760,-8.220
24,47999.990000,-65.101,9.107,-236.232,22.357,-410.070,-303.654,-5.500,11.760,-5.220
25,48000.12000,-63.143,7.083,-239.197,14.425,-410.005,-297.607,-7.500,13.760,-8.220
26,48000.40000,-62.164,7.083,-238.208,19.360,-407.143,-301.636,-8.500,0.760,-10.220
27,48000.52000,-63.143,8.095,-237.220,14.468,-409.034,-300.562,-8.500,-6.240,-12.220
28,48000.75000,-65.101,9.107,-238.208,16.434,-410.019,-300.596,-9.500,-0.240,-11.220
29,48000.89000,-64.122,9.107,-239.197,18.365,-409.071,-299.647,-10.500,11.760,-13.220
30,48000.116000,-64.122,9.107,-239.197,19.378,-409.078,-301.634,-9.500,3.760,-14.220
31,48000.139000,-65.101,8.095,-237.220,12.537,-408.047,-302.498,-11.500,3.760,-12.220
32,48000.159000,-64.122,9.107,-240.185,16.346,-402.281,-299.619,-10.500,8.760,-12.220
33,48000.183000,-63.143,7.083,-239.197,18.329,-405.201,-299.651,-8.500,9.760,-10.220
34,48000.203000,-63.143,7.083,-240.185,16.381,-406.151,-299.615,-7.500,-4.240,-12.220
35,48000.218000,-64.122,9.107,-240.185,13.490,-409.025,-300.545,-4.500,-9.240,-13.220
36,48000.251000,-63.143,9.107,-240.185,16.399,-408.086,-299.613,-6.500,-3.240,-14.220
37,48000.266000,-64.122,9.107,-239.197,17.421,-407.124,-302.586,-5.500,2.760,-10.220
38,48000.302000,-63.143,9.107,-240.185,15.437,-406.140,-301.567,-3.500,7.760,-10.220
39,48000.311000,-62.164,11.130,-239.197,14.477,-408.066,-301.548,-4.500,9.760,-10.220
40,48000.325000,-62.164,11.130,-239.197,16.408,-407.117,-300.599,-4.500,8.760,-8.220
41,48000.347000,-62.164,9.107,-237.220,19.421,-408.107,-304.589,-4.500,-5.240,-8.220
42,48000.366000,-61.185,10.119,-238.208,16.373,-407.119,-298.629,-6.500,-9.240,-8.220
43,48000.386000,-64.122,8.095,-240.185,22.296,-409.105,-300.701,-4.500,1.760,-3.220
44,48000.406000,-63.143,8.095,-239.197,19.404,-408.108,-303.604,0.500,16.760,1.780
45,48000.420000,-62.164,9.107,-239.197,19.378,-409.078,-301.634,0.500,9.760,2.780
46,48000.434000,-62.164,9.107,-239.197,12.545,-405.143,-304.471,-1.500,-0.240,2.780
47,48000.471000,-61.185,9.107,-236.232,17.421,-407.124,-302.586,-6.500,-13.240,2.780
48,48000.474000,-62.164,9.107,-238.208,21.352,-409.095,-302.653,-8.500,-28.240,-0.220
49,48000.505000,-63.143,10.119,-237.220,14.468,-409.034,-300.562,-10.500,-25.240,-5.220
50,48000.525000,-65.101,9.107,-238.208,21.352,-409.095,-302.653,-9.500,-11.240,-3.220
51,48000.561000,-64.122,10.119,-238.208,23.257,-407.179,-300.720,-8.500,11.760,-2.220
52,48000.582000,-62.164,8.095,-240.185,21.326,-408.128,-301.669,-10.500,-0.240,-3.220
53,48000.595000,-65.101,8.095,-241.174,23.240,-407.180,-299.735,-11.500,-6.240,-3.220
54,48000.617000,-64.122,10.119,-239.197,15.517,-412.911,-302.545,-10.500,4.760,-2.220
55,48000.639000,-63.143,9.107,-238.208,12.502,-408.049,-300.529,-7.500,6.760,-4.220
56,48000.657000,-65.101,10.119,-239.197,11.567,-407.070,-303.467,-6.500,7.760,-5.220
57,48000.680000,-62.164,10.119,-241.174,13.507,-407.089,-302.517,-2.500,22.760,-2.220
58,48000.695000,-61.185,10.119,-240.185,17.491,-410.992,-304.551,-1.500,20.760,1.780
59,48000.714000,-62.164,10.119,-240.185,18.424,-404.228,-305.560,-2.500,17.760,1.780
60,48000.731000,-64.122,10.119,-243.151,18.330,-407.137,-298.664,-2.500,15.760,-2.220
61,48000.750000,-62.164,11.130,-242.162,12.519,-406.112,-302.500,1.500,27.760,-2.220
62,48000.766000,-60.207,10.119,-241.174,13.497,-404.185,-303.504,7.500,27.760,-2.220
63,48000.797000,-59.228,10.119,-240.185,24.313,-406.216,-305.662,7.500,11.760,1.780
64,48000.813000,-62.164,10.119,-240.185,17.411,-404.221,-303.573,8.500,11.760,5.780
65,48000.840000,-60.207,9.107,-238.208,20.425,-407.147,-306.577,8.500,18.760,8.780
66,48000.861000,-60.207,9.107,-237.220,15.454,-404.203,-303.539,3.500,-3.240,3.780
67,48000.875000,-61.185,10.119,-239.197,15.516,-407.103,-305.506,0.500,-2.240,3.780
68,48000.893000,-60.207,10.119,-242.162,15.437,-406.140,-301.567,-2.500,4.760,4.780
69,48000.917000,-60.207,10.119,-238.208,20.312,-404.250,-301.656,-3.500,9.760,1.780
70,48000.950000,-62.164,11.130,-235.243,20.285,-401.347,-301.659,-4.500,15.760,3.780
71,48000.959000,-59.228,10.119,-239.197,18.372,-402.295,-303.593,-0.500,20.760,5.780
72,48000.992000,-60.207,11.130,-239.197,14.537,-405.159,-306.475,-1.500,1.760,9.780
73,48000.996000,-63.143,11.130,-238.208,10.588,-405.125,-304.436,-1.500,-3.240,10.780
74,48001.30000,-62.164,10.119,-240.185,18.398,-403.261,-304.577,-2.500,0.760,11.780
75,48001.64000,-60.207,10.119,-239.197,16.442,-405.179,-303.555,-5.500,1.760,7.780
76,48001.64000,-62.164,10.119,-238.208,15.550,-405.166,-308.462,-8.500,1.760,5.780
77,48001.77000,-63.143,9.107,-239.197,14.546,-408.062,-305.487,-10.500,8.760,5.780
78,48001.95000,-59.228,10.119,-240.185,17.524,-405.182,-309.481,-10.500,7.760,6.780
79,48001.120000,-61.185,11.130,-240.185,10.579,-404.158,-304.437,-15.500,-22.240,2.780
80,48001.142000,-64.122,10.119,-241.174,12.527,-403.208,-304.473,-21.500,-24.240,-1.220
81,48001.163000,-64.122,11.130,-239.197,16.406,-401.310,-303.559,-16.500,4.760,-4.220
82,48001.186000,-62.164,11.130,-241.174,16.485,-404.209,-306.510,-8.500,14.760,-2.220
83,48001.209000,-59.228,10.119,-244.139,20.451,-404.242,-309.534,-4.500,-5.240,0.780
84,48001.227000,-61.185,10.119,-242.162,11.584,-405.133,-305.438,-2.500,-13.240,5.780
85,48001.249000,-63.143,10.119,-240.185,13.549,-404.182,-306.459,-3.500,-10.240,5.780
86,48001.269000,289.285,419.921,-95.876,7.645,-409.938,-301.425,-1153.500,15.760,135.780
87,48001.296000,-102.302,-17.202,-239.197,2.574,-420.551,-285.572,-517.500,-1191.240,216.780
88,48001.328000,-143.419,-12.142,-244.139,5.535,-421.544,-286.607,-104.500,-332.240,-16.220
89,48001.342000,-113.071,-16.190,-251.058,8.504,-415.761,-291.589,27.500,338.760,-137.220
90,48001.356000,-112.092,24.285,-257.977,3.669,-405.067,-300.376,224.500,881.760,-211.220
91,48001.378000,-1.468,63.747,-222.394,8.578,-401.239,-303.421,125.500,606.760,54.780
92,48001.391000,-36.711,3.036,-238.208,4.682,-405.074,-302.363,-56.500,-60.240,-20.220
93,48001.419000,-69.017,24.285,-256.000,10.579,-404.158,-304.437,-14.500,-30.240,-4.220
94,48001.436000,-59.228,13.154,-254.023,3.746,-402.159,-306.288,-7.500,-51.240,12.780
95,48001.457000,-69.017,15.178,-251.058,9.610,-407.052,-303.432,3.500,-37.240,15.780
96,48001.481000,-69.017,15.178,-246.116,9.653,-406.082,-306.387,32.500,44.760,14.780
97,48001.498000,-62.164,15.178,-242.162,7.669,-401.226,-307.342,45.500,80.760,1.780
98,48001.521000,-57.270,15.178,-242.162,4.690,-400.234,-305.322,40.500,65.760,6.780
99,48001.546000,-54.333,15.178,-239.197,5.687,-404.113,-304.351,29.500,-5.240,9.780
100,48001.561000,-58.249,13.154,-238.208,9.574,-401.247,-304.423,21.500,-41.240,8.780
101,48001.576000,-67.059,13.154,-238.208,9.644,-403.178,-307.375,28.500,8.760,10.780
102,48001.599000,-63.143,12.142,-237.220,6.631,-404.124,-302.398,31.500,52.760,10.780
103,48001.619000,-58.249,11.130,-237.220,6.674,-403.154,-305.354,30.500,53.760,13.780
104,48001.644000,-58.249,10.119,-239.197,10.596,-404.157,-305.422,29.500,45.760,17.780
105,48001.660000,-59.228,11.130,-238.208,1.909,-394.391,-317.093,22.500,38.760,19.780
106,48001.681000,-38.669,-54.640,-170.008,2.752,-407.958,-302.325,-51.500,-1258.240,433.780
107,48001.704000,-140.482,-34.403,-238.208,6.623,-408.964,-299.439,-59.500,-141.240,-75.220
108,48001.721000,-100.344,-18.213,-237.220,5.679,-407.017,-302.378,5.500,239.760,-12.220
109,48001.744000,-87.618,-28.332,-248.093,2.777,-405.053,-305.283,109.500,390.760,-134.220
110,48001.757000,-83.702,20.237,-259.954,3.824,-399.251,-312.199,78.500,491.760,48.780
111,48001.787000,-65.101,13.154,-249.081,7.737,-395.415,-314.242,-79.500,-59.240,11.780
112,48001.807000,-63.143,20.237,-255.012,9.712,-399.303,-313.288,-72.500,-89.240,0.780
113,48001.830000,-60.207,16.190,-256.988,2.845,-397.306,-313.168,-30.500,-37.240,-6.220
114,48001.847000,-64.122,18.213,-255.012,4.811,-400.227,-312.215,-11.500,-31.240,-3.220
115,48001.869000,-61.185,17.202,-250.069,5.807,-400.235,-313.217,11.500,17.760,0.780
116,48001.886000,-59.228,17.202,-247.104,4.854,-399.257,-315.171,23.500,39.760,-5.220
117,48001.914000,-56.291,18.213,-244.139,-0.100,-396.312,-313.117,28.500,51.760,-7.220
118,48001.934000,-51.396,17.202,-241.174,4.846,-400.225,-314.185,31.500,14.760,-10.220
119,48001.956000,-56.291,15.178,-241.174,8.768,-399.292,-315.240,25.500,-53.240,-10.220
120,48001.973000,-61.185,14.166,-240.185,3.788,-397.317,-311.216,24.500,-60.240,-10.220
121,48001.997000,-60.207,14.166,-237.220,4.793,-398.292,-312.217,26.500,-12.240,-10.220
122,48002.14000,-55.312,13.154,-237.220,2.801,-396.340,-311.200,32.500,43.760,-4.220
123,48002.30000,-52.375,13.154,-238.208,9.703,-398.336,-313.289,26.500,30.760,-5.220
124,48002.54000,-54.333,12.142,-239.197,9.632,-392.532,-312.310,17.500,-20.240,-11.220
125,48002.76000,-62.164,13.154,-239.197,3.789,-399.253,-310.229,10.500,-18.240,-12.220
126,48002.105000,-68.038,-114.340,-221.405,-6.036,-409.813,-302.168,296.500,-1959.240,691.780
127,48002.136000,-156.145,12.142,-228.324,-2.235,-408.887,-296.329,-343.500,-667.240,-102.220
128,48002.139000,-105.239,-12.142,-241.174,-5.179,-409.828,-295.292,-23.500,115.760,-9.220
129,48002.155000,-117.966,-1.012,-261.931,-5.128,-405.954,-300.219,73.500,346.760,-224.220
130,48002.177000,-65.101,37.439,-258.965,3.789,-401.188,-309.243,411.500,818.760,-209.220
131,48002.200000,21.048,57.676,-224.371,4.801,-393.452,-315.176,156.500,724.760,7.780
132,48002.216000,-57.270,15.178,-251.058,1.892,-396.328,-315.122,-80.500,-90.240,-10.220
133,48002.237000,-68.038,27.320,-262.919,-4.966,-399.169,-313.028,-53.500,-108.240,-39.220
134,48002.260000,-63.143,20.237,-265.884,4.811,-400.227,-312.215,-12.500,-65.240,-16.220
135,48002.280000,-67.059,22.261,-262.919,5.772,-398.301,-312.235,25.500,11.760,-8.220
136,48002.300000,-60.207,20.237,-252.046,-1.079,-394.367,-314.087,54.500,56.760,-11.220
137,48002.322000,-56.291,21.249,-250.069,-0.065,-398.246,-314.100,68.500,60.760,-19.220
138,48002.345000,-53.354,19.225,-246.116,5.832,-399.265,-315.188,73.500,53.760,-17.220
139,48002.362000,-52.375,17.202,-244.139,2.863,-401.176,-312.180,68.500,-8.240,-15.220
140,48002.385000,-55.312,18.213,-242.162,4.854,-399.257,-315.171,62.500,-76.240,-18.220
141,48002.402000,-63.143,18.213,-239.197,8.707,-398.328,-312.286,67.500,-45.240,-19.220
142,48002.431000,-59.228,15.178,-236.232,6.767,-398.309,-313.237,70.500,31.760,-17.220
143,48002.450000,-54.333,14.166,-235.243,4.802,-399.259,-312.216,66.500,46.760,-15.220
144,48002.470000,-51.396,13.154,-235.243,2.897,-401.175,-314.149,53.500,2.760,-20.220
145,48002.488000,147.335,188.206,-180.880,-6.054,-409.814,-301.183,-119.500,-1565.240,657.780
146,48002.510000,-113.071,-26.308,-215.475,-9.136,-412.699,-291.280,-370.500,-967.240,20.780
147,48002.530000,-164.956,14.166,-241.174,-8.122,-414.642,-292.281,-123.500,-359.240,-85.220
148,48002.562000,-127.755,-30.356,-256.000,0.761,-409.878,-299.335,210.500,659.760,-175.220
149,48002.581000,-81.744,2.024,-263.907,8.776,-396.388,-317.212,583.500,1342.760,-341.220
150,48002.600000,64.122,81.960,-205.591,2.930,-393.429,-320.066,-65.500,454.760,-1.220
151,48002.612000,-56.291,18.213,-247.104,3.865,-392.473,-318.114,-100.500,-238.240,-1.220
152,48002.635000,-65.101,20.237,-256.000,4.758,-394.422,-312.221,-50.500,-93.240,-18.220
153,48002.657000,-58.249,19.225,-257.977,7.737,-395.415,-314.242,-36.500,-110.240,-2.220
154,48002.672000,-70.975,18.213,-257.977,6.732,-394.439,-313.241,7.500,21.760,0.780
155,48002.695000,-61.185,18.213,-252.046,3.910,-399.246,-317.123,28.500,61.760,-3.220
156,48002.717000,-56.291,17.202,-249.081,2.879,-397.304,-315.138,32.500,60.760,-12.220
157,48002.732000,-53.354,19.225,-246.116,4.836,-395.386,-316.159,40.500,58.760,-11.220
158,48002.749000,-49.438,15.178,-240.185,5.797,-395.396,-315.192,32.500,-11.240,-4.220
159,48002.771000,-53.354,13.154,-239.197,8.759,-396.389,-316.227,20.500,-76.240,-5.220
160,48002.789000,-60.207,14.166,-238.208,7.745,-394.446,-315.227,20.500,-34.240,-6.220
161,48002.825000,-58.249,15.178,-235.243,9.693,-393.497,-315.263,23.500,27.760,-3.220
162,48002.827000,-53.354,13.154,-238.208,2.826,-393.435,-314.157,18.500,18.760,-7.220
163,48002.849000,-49.438,16.190,-238.208,4.802,-397.324,-313.203,5.500,-39.240,-12.220
164,48002.891000,-170.830,-113.328,-101.807,2.776,-401.181,-307.256,-1014.500,115.760,73.780
165,48002.910000,-96.428,-39.462,-224.371,-2.260,-413.728,-292.385,-489.500,-1340.240,240.780
166,48002.925000,-161.040,-6.071,-237.220,-6.183,-412.725,-292.317,-74.500,-280.240,-23.220
167,48002.945000,-116.987,-23.273,-244.139,-3.170,-409.843,-298.281,84.500,522.760,-153.220
168,48002.972000,-122.860,4.047,-263.907,5.859,-400.232,-316.172,357.500,1168.760,-289.220
169,48002.987000,8.321,-25.296,-225.359,-0.058,-391.470,-318.046,-109.500,618.760,50.780
170,48003.5000,12.237,63.747,-224.371,-2.984,-394.346,-317.007,-121.500,-283.240,-7.220
171,48003.30000,-81.744,16.190,-258.965,4.758,-394.422,-312.221,-57.500,-114.240,-10.220
172,48003.34000,-57.270,23.273,-256.000,-0.099,-398.248,-312.131,-43.500,-111.240,1.780
173,48003.55000,-68.038,19.225,-256.988,-0.169,-394.380,-310.165,-27.500,-61.240,3.780
174,48003.72000,-57.270,21.249,-248.093,-2.031,-397.260,-314.067,17.500,56.760,0.780
175,48003.102000,-54.333,21.249,-248.093,3.866,-396.344,-316.141,28.500,49.760,-9.220
176,48003.125000,-50.417,20.237,-241.174,1.856,-392.458,-315.126,31.500,30.760,-4.220
177,48003.147000,-53.354,18.213,-238.208,-0.100,-394.376,-314.104,25.500,-49.240,4.780
178,48003.165000,-61.185,17.202,-240.185,9.754,-396.397,-317.230,17.500,-89.240,4.780
179,48003.187000,-62.164,18.213,-239.197,6.794,-401.211,-313.234,25.500,-27.240,4.780
180,48003.214000,-56.291,19.225,-237.220,1.849,-399.234,-311.180,25.500,20.760,-0.220
181,48003.226000,-52.375,17.202,-237.220,3.867,-400.216,-314.168,20.500,0.760,-3.220
182,48003.249000,-80.765,-130.530,-178.903,-5.044,-398.206,-309.090,-1615.500,308.760,255.780
183,48003.271000,-167.893,9.107,-230.301,-10.113,-416.562,-289.290,-788.500,-1631.240,178.780
184,48003.304000,-159.082,-4.047,-254.023,-8.234,-415.616,-285.386,-119.500,-370.240,-60.220
185,48003.332000,-167.893,-1.012,-274.780,-12.011,-411.701,-295.169,221.500,757.760,-202.220
186,48003.339000,41.606,19.225,-215.475,-5.936,-396.256,-314.983,668.500,1688.760,-253.220
187,48003.361000,32.795,49.581,-218.440,1.925,-392.454,-319.065,-15.500,426.760,-0.220
188,48003.376000,-84.681,18.213,-259.954,-5.954,-394.322,-314.985,-118.500,-257.240,-20.220
189,48003.399000,-57.270,31.368,-257.977,-2.004,-398.227,-315.050,-50.500,-129.240,-9.220
190,48003.416000,-69.017,23.273,-260.942,-4.039,-397.246,-311.078,-40.500,-153.240,10.780
191,48003.441000,-73.912,29.344,-256.000,-4.049,-394.342,-312.065,-19.500,-34.240,14.780
192,48003.461000,-61.185,25.296,-252.046,-10.855,-395.246,-313.913,22.500,66.760,18.780
193,48003.479000,-58.249,26.308,-248.093,-1.060,-398.238,-313.098,33.500,54.760,-8.220
194,48003.501000,-57.270,27.320,-245.127,-2.031,-395.325,-315.053,37.500,35.760,-17.220
195,48003.519000,-54.333,23.273,-244.139,0.896,-396.320,-314.120,32.500,-33.240,-13.220
196,48003.536000,-62.164,23.273,-244.139,-5.952,-400.129,-312.025,27.500,-96.240,-17.220
197,48003.559000,-69.996,25.296,-243.151,-1.078,-398.239,-312.113,41.500,-19.240,-24.220
198,48003.579000,-63.143,23.273,-238.208,-0.160,-397.283,-309.177,56.500,69.760,-22.220
199,48003.601000,-55.312,20.237,-239.197,1.840,-396.331,-312.167,54.500,65.760,-29.220
200,48003.620000,-53.354,22.261,-236.232,-4.975,-396.266,-314.016,43.500,-5.240,-33.220
201,48003.642000,-59.228,21.249,-236.232,2.853,-396.337,-314.154,30.500,-52.240,-41.220
202,48003.660000,-62.164,21.249,-236.232,1.927,-400.197,-315.118,26.500,-23.240,-43.220
203,48003.677000,-59.228,22.261,-234.255,-0.109,-395.344,-313.118,25.500,16.760,-44.220
204,48003.710000,-59.228,22.261,-233.266,-1.069,-397.270,-313.099,23.500,44.760,-44.220
205,48003.739000,-53.354,21.249,-232.278,8.794,-398.323,-317.210,12.500,37.760,-39.220
206,48003.752000,-53.354,21.249,-234.255,6.758,-395.406,-314.224,-3.500,-6.240,-38.220
207,48003.772000,-56.291,20.237,-236.232,10.742,-399.309,-316.259,-12.500,-22.240,-39.220
208,48003.787000,-57.270,21.249,-238.208,4.810,-396.355,-314.189,-12.500,-12.240,-43.220
209,48003.805000,-59.228,20.237,-238.208,3.840,-397.314,-314.171,-13.500,-2.240,-43.220
210,48003.827000,-60.207,20.237,-240.185,1.857,-396.330,-313.152,-13.500,-4.240,-45.220
211,48003.850000,-59.228,22.261,-243.151,2.792,-393.437,-312.188,-15.500,-17.240,-44.220
212,48003.866000,-62.164,20.237,-247.104,10.699,-398.343,-314.291,-12.500,-32.240,-51.220
213,48003.890000,-65.101,21.249,-253.035,7.755,-399.285,-313.253,-7.500,-53.240,-66.220
214,48003.921000,-66.080,23.273,-259.954,9.642,-395.435,-311.322,9.500,-86.240,-85.220
215,48003.939000,-69.017,21.249,-263.907,5.772,-398.301,-312.235,39.500,-119.240,-99.220
216,48003.956000,-72.933,24.285,-266.873,9.669,-400.273,-310.332,72.500,-118.240,-111.220
217,48003.977000,-70.975,20.237,-267.861,10.665,-400.281,-311.334,88.500,-120.240,-116.220
218,48003.997000,-73.912,22.261,-265.884,11.548,-401.263,-305.442,125.500,-130.240,-138.220
219,48004.17000,-73.912,21.249,-259.954,17.516,-406.151,-308.495,155.500,-83.240,-140.220
220,48004.30000,-63.143,17.202,-248.093,20.390,-405.213,-305.594,176.500,-63.240,-140.220
221,48004.65000,-56.291,15.178,-233.266,27.206,-407.213,-302.759,178.500,-86.240,-130.220
222,48004.104000,-46.501,12.142,-222.394,26.183,-402.367,-302.746,170.500,-139.240,-119.220
223,48004.106000,-33.774,11.130,-201.637,30.063,-406.276,-298.873,131.500,-223.240,-97.220
224,48004.114000,-27.901,6.071,-187.799,33.008,-409.206,-297.937,69.500,-219.240,-38.220
225,48004.136000,-13.216,4.047,-162.100,30.964,-409.193,-292.978,-8.500,-173.240,45.780
226,48004.159000,34.753,6.071,-121.575,23.215,-413.957,-294.805,-82.500,-235.240,109.780
227,48004.179000,62.164,2.024,-107.737,16.203,-418.744,-282.862,-301.500,-585.240,239.780
228,48004.201000,51.396,2.024,-120.587,17.115,-430.371,-273.020,-500.500,-874.240,314.780
229,48004.219000,29.859,8.095,-136.402,3.286,-429.286,-265.885,-620.500,-809.240,439.780
230,48004.241000,37.690,19.225,-137.390,-14.455,-433.973,-255.721,-731.500,-629.240,576.780
231,48004.264000,39.648,32.379,-151.228,-17.425,-433.948,-253.700,-848.500,-435.240,712.780
232,48004.281000,23.006,44.522,-171.985,-37.990,-437.634,-250.378,-870.500,-186.240,866.780
233,48004.301000,23.985,53.628,-194.718,-54.694,-433.615,-248.118,-869.500,-105.240,996.780
234,48004.319000,40.627,71.842,-207.568,-77.278,-430.511,-244.769,-913.500,-195.240,1144.780
235,48004.339000,7.342,106.245,-232.278,-86.189,-428.501,-239.692,-917.500,-203.240,1228.780
236,48004.360000,11.258,123.447,-245.127,-113.665,-425.352,-236.256,-866.500,-157.240,1373.780
237,48004.374000,-15.174,138.625,-248.093,-145.168,-425.078,-224.870,-831.500,-275.240,1456.780
238,48004.397000,-43.564,155.826,-252.046,-160.921,-416.230,-223.617,-816.500,-201.240,1558.780
239,48004.429000,-5.384,172.016,-256.000,-183.603,-402.485,-220.278,-727.500,111.760,1684.780
240,48004.442000,10.279,182.134,-252.046,-200.333,-399.435,-216.048,-665.500,-12.240,1735.780
241,48004.464000,-37.690,189.217,-253.035,-226.962,-389.528,-208.697,-667.500,-287.240,1790.780
242,48004.485000,-51.396,200.348,-241.174,-237.962,-376.861,-201.626,-591.500,-48.240,1880.780
243,48004.507000,6.363,218.561,-219.429,-264.488,-366.947,-200.184,-503.500,87.760,1953.780
244,48004.525000,19.090,220.585,-222.394,-285.421,-349.360,-187.037,-500.500,-76.240,1975.780
245,48004.544000,-31.816,211.478,-225.359,-299.226,-343.434,-183.846,-524.500,-488.240,2028.780
246,48004.564000,-34.753,226.656,-211.521,-330.941,-319.942,-172.483,-475.500,-447.240,2117.780
247,48004.576000,-19.090,242.846,-197.683,-336.908,-315.055,-169.430,-435.500,-283.240,2184.780
248,48004.603000,5.384,244.870,-185.822,-362.771,-289.682,-158.173,-398.500,-236.240,2254.780
249,48004.626000,-21.048,249.929,-198.672,-369.806,-275.111,-155.112,-416.500,-379.240,2314.780
250,48004.649000,-43.564,259.036,-207.568,-391.702,-249.771,-146.879,-372.500,-300.240,2394.780
251,48004.671000,-35.732,264.095,-212.510,-407.781,-218.679,-138.755,-306.500,-109.240,2537.780
252,48004.691000,-23.006,273.202,-235.243,-423.631,-203.061,-135.540,-277.500,-70.240,2698.780
253,48004.714000,-66.080,278.261,-293.560,-430.879,-167.209,-131.516,-218.500,-146.240,2765.780
254,48004.717000,-85.660,281.296,-321.236,-440.868,-148.741,-129.392,-96.500,-2.240,2850.780
255,48004.746000,-52.375,288.379,-347.923,-450.030,-111.901,-128.288,80.500,170.760,2855.780
256,48004.767000,-16.153,273.202,-366.703,-462.885,-93.403,-130.051,297.500,-90.240,2770.780
257,48004.790000,-29.859,272.190,-370.656,-466.027,-63.382,-133.969,487.500,-418.240,2561.780
258,48004.810000,-58.249,256.000,-375.598,-466.057,-44.994,-141.865,766.500,-371.240,2378.780
259,48004.832000,-38.669,223.621,-378.564,-457.370,-17.011,-149.927,1051.500,-133.240,2186.780
260,48004.855000,2.447,216.538,-374.610,-456.285,3.312,-166.706,1244.500,-128.240,1965.780
261,48004.877000,12.237,210.466,-367.691,-447.385,11.948,-176.718,1333.500,-173.240,1862.780
262,48004.895000,9.300,208.443,-351.876,-443.277,32.249,-198.473,1502.500,-183.240,1698.780
263,48004.917000,19.090,194.277,-330.131,-438.310,42.856,-208.418,1673.500,-103.240,1589.780
264,48004.937000,39.648,185.170,-312.340,-425.265,58.245,-235.247,1824.500,-187.240,1439.780
265,48004.958000,32.795,182.134,-288.618,-411.464,65.870,-245.344,1966.500,-319.240,1238.780
266,48004.979000,31.816,165.945,-268.849,-394.355,72.520,-276.173,2068.500,-331.240,1070.780
267,48004.997000,32.795,151.779,-257.977,-377.291,80.137,-305.033,2128.500,-295.240,891.780
268,48005.30000,29.859,145.708,-233.266,-368.294,80.067,-316.021,2164.500,-130.240,737.780
269,48005.49000,31.816,129.518,-206.579,-339.529,84.671,-341.147,2164.500,-11.240,615.780
270,48005.62000,28.880,103.209,-185.822,-327.607,87.478,-353.174,2137.500,2.760,541.780
271,48005.85000,27.901,82.972,-171.985,-302.799,91.146,-375.275,2061.500,-25.240,379.780
272,48005.104000,22.027,67.794,-158.147,-288.910,89.097,-385.363,1982.500,-25.240,211.780
273,48005.121000,22.027,51.605,-141.344,-265.133,92.771,-404.493,1900.500,-63.240,42.780
274,48005.144000,13.216,38.451,-135.413,-242.264,90.651,-424.584,1797.500,-91.240,-135.220
275,48005.166000,11.258,30.356,-137.390,-236.315,91.570,-429.613,1711.500,-120.240,-281.220
276,48005.184000,8.321,24.285,-126.517,-205.712,84.534,-441.959,1631.500,-107.240,-404.220
277,48005.206000,6.363,9.107,-115.645,-202.724,84.511,-444.966,1517.500,-56.240,-515.220
278,48005.232000,-1.468,-1.012,-108.726,-182.947,84.344,-457.129,1405.500,77.760,-635.220
279,48005.255000,-7.342,-8.095,-102.795,-174.105,82.331,-458.267,1354.500,172.760,-694.220
280,48005.272000,2.447,-21.249,-103.784,-152.493,86.011,-465.545,1265.500,255.760,-804.220
281,48005.295000,3.426,-31.368,-99.830,-147.567,89.840,-469.575,1150.500,277.760,-938.220
282,48005.312000,9.300,-43.510,-92.911,-133.799,91.655,-474.743,1022.500,314.760,-1097.220
283,48005.335000,23.006,-50.593,-91.923,-121.096,89.603,-472.996,922.500,258.760,-1272.220
284,48005.371000,22.027,-40.474,-88.958,-112.247,92.429,-477.094,833.500,253.760,-1417.220
285,48005.371000,16.153,-35.415,-79.073,-100.514,93.290,-477.302,728.500,379.760,-1566.220
286,48005.388000,29.859,-36.427,-79.073,-104.368,94.297,-481.173,595.500,432.760,-1701.220
287,48005.412000,45.522,-20.237,-76.108,-99.624,101.019,-476.343,502.500,447.760,-1826.220
288,48005.430000,55.312,-7.083,-69.189,-96.681,105.832,-479.354,448.500,463.760,-1888.220
289,48005.452000,68.038,-16.190,-72.154,-97.721,110.677,-478.356,312.500,472.760,-2020.220
290,48005.475000,84.681,-8.095,-77.097,-100.735,113.603,-475.353,181.500,404.760,-2162.220
291,48005.497000,101.323,12.142,-79.073,-98.743,109.716,-475.384,99.500,270.760,-2297.220
292,48005.520000,105.239,27.320,-82.039,-106.579,108.819,-474.260,9.500,236.760,-2390.220
293,48005.539000,101.323,40.474,-92.911,-115.446,109.863,-471.151,-78.500,391.760,-2472.220
294,48005.570000,168.872,62.735,-115.645,-113.497,105.005,-468.226,-165.500,359.760,-2578.220
295,48005.585000,149.293,91.067,-116.633,-125.248,108.015,-469.006,-231.500,92.760,-2675.220
296,48005.605000,136.566,102.198,-115.645,-138.019,104.256,-463.854,-276.500,319.760,-2711.220
297,48005.626000,186.493,115.352,-135.413,-151.866,105.341,-455.734,-278.500,532.760,-2731.220
298,48005.644000,212.925,137.613,-162.100,-163.537,99.644,-456.506,-265.500,517.760,-2830.220
299,48005.674000,182.577,156.838,-160.124,-167.406,92.907,-455.445,-285.500,176.760,-2916.220
300,48005.701000,202.157,161.897,-177.915,-180.195,91.083,-450.294,-341.500,326.760,-2959.220
301,48005.715000,257.958,164.933,-225.359,-194.783,79.606,-449.038,-337.500,285.760,-3046.220
302,48005.715000,236.421,200.348,-243.151,-195.741,68.002,-444.085,-352.500,-337.240,-3154.220
303,48005.742000,201.178,220.585,-255.012,-204.361,47.766,-443.909,-320.500,-399.240,-3171.220
304,48005.762000,220.757,220.585,-299.490,-213.966,22.700,-440.756,-211.500,-101.240,-3162.220
305,48005.780000,227.610,247.905,-328.154,-219.705,14.049,-443.598,-57.500,-49.240,-3158.220
306,48005.802000,218.799,265.107,-331.120,-220.610,-3.360,-438.639,32.500,-31.240,-3117.220
307,48005.820000,228.589,264.095,-337.050,-213.620,-11.158,-442.692,219.500,165.760,-2991.220
308,48005.842000,260.895,260.047,-361.761,-208.586,-22.809,-444.736,441.500,156.760,-2895.220
309,48005.864000,235.442,273.202,-363.737,-202.529,-39.306,-446.793,622.500,-264.240,-2821.220
310,48005.896000,209.989,285.344,-356.819,-184.626,-57.840,-453.979,817.500,-342.240,-2689.220
311,48005.916000,226.631,288.379,-362.749,-175.600,-72.426,-459.044,1039.500,-276.240,-2540.220
312,48005.925000,227.610,287.368,-361.761,-155.880,-83.243,-462.334,1251.500,-410.240,-2387.220
313,48005.947000,203.136,290.403,-359.784,-120.409,-97.100,-469.836,1473.500,-394.240,-2180.220
314,48005.967000,203.136,285.344,-354.842,-100.717,-101.143,-475.102,1601.500,-269.240,-1933.220
315,48005.985000,240.337,277.249,-347.923,-65.334,-107.262,-481.628,1849.500,-201.240,-1821.220
316,48006.7000,237.400,271.178,-334.085,-41.684,-114.241,-487.945,2019.500,-543.240,-1621.220
317,48006.27000,208.031,263.083,-318.270,-9.296,-127.112,-487.518,2176.500,-687.240,-1374.220
318,48006.41000,210.967,249.929,-311.351,21.021,-131.260,-485.096,2372.500,-570.240,-1094.220
319,48006.66000,230.547,235.763,-289.606,66.042,-138.444,-482.931,2512.500,-661.240,-847.220
320,48006.94000,205.094,214.514,-266.873,120.833,-153.461,-476.007,2584.500,-817.240,-616.220
321,48006.116000,177.683,195.289,-251.058,140.300,-157.517,-468.471,2654.500,-701.240,-396.220
322,48006.149000,189.430,177.075,-225.359,191.946,-166.712,-452.639,2692.500,-651.240,-179.220
323,48006.168000,185.514,155.826,-199.660,210.391,-171.728,-442.130,2680.500,-738.240,-89.220
324,48006.190000,150.272,131.542,-182.857,252.158,-183.743,-419.228,2626.500,-883.240,47.780
325,48006.195000,139.503,108.269,-160.124,275.480,-194.613,-404.861,2586.500,-804.240,190.780
326,48006.217000,143.419,80.949,-127.506,310.312,-210.442,-374.941,2500.500,-764.240,365.780
327,48006.240000,129.713,55.652,-108.726,346.095,-223.377,-345.041,2332.500,-861.240,506.780
328,48006.262000,111.113,24.285,-96.865,350.783,-235.048,-327.390,2152.500,-977.240,609.780
329,48006.282000,99.365,-2.024,-85.992,371.008,-256.547,-298.189,1958.500,-1071.240,673.780
330,48006.304000,93.491,-23.273,-80.062,375.625,-260.479,-280.546,1752.500,-1206.240,731.780
331,48006.321000,69.017,-37.439,-82.039,386.967,-286.742,-244.291,1571.500,-1249.240,768.780
332,48006.339000,35.732,-57.676,-82.039,392.659,-299.388,-227.641,1508.500,-1178.240,790.780
333,48006.352000,30.837,-73.866,-80.062,398.249,-317.847,-202.123,1395.500,-1006.240,849.780
334,48006.380000,34.753,-86.008,-82.039,390.062,-333.283,-173.411,1247.500,-1001.240,884.780
335,48006.396000,14.195,-91.067,-86.981,385.943,-342.938,-156.591,1099.500,-991.240,925.780
336,48006.425000,-8.321,-92.079,-87.969,384.761,-360.363,-135.876,999.500,-749.240,998.780
337,48006.447000,-11.258,-99.162,-86.981,382.685,-368.095,-125.001,897.500,-447.240,1096.780
338,48006.470000,-10.279,-99.162,-85.004,364.955,-383.428,-109.903,784.500,-228.240,1191.780
339,48006.490000,-16.153,-96.126,-83.027,353.190,-392.034,-103.778,678.500,-32.240,1303.780
340,48006.505000,-18.111,-92.079,-79.073,340.612,-407.396,-103.537,555.500,146.760,1418.780
341,48006.527000,-16.153,-89.043,-76.108,331.745,-410.223,-98.455,486.500,210.760,1482.780
342,48006.561000,-20.069,-84.996,-77.097,308.422,-427.423,-98.022,341.500,269.760,1587.780
343,48006.589000,-30.837,-74.877,-74.131,282.213,-440.722,-102.465,204.500,307.760,1691.780
344,48006.591000,-31.816,-70.830,-73.143,267.634,-453.165,-101.208,47.500,302.760,1788.780
345,48006.612000,-36.711,-61.723,-83.027,240.377,-460.652,-104.655,-107.500,195.760,1852.780
346,48006.632000,-55.312,-45.534,-88.958,215.076,-464.284,-110.110,-232.500,229.760,1899.780
347,48006.650000,-82.723,-30.356,-91.923,186.001,-477.552,-118.440,-340.500,485.760,1944.780
348,48006.670000,-95.449,-21.249,-92.911,174.398,-477.437,-126.110,-464.500,783.760,1979.780
349,48006.697000,-92.512,-15.178,-111.691,130.695,-478.954,-143.055,-619.500,846.760,1971.780
350,48006.720000,-115.029,-15.178,-131.459,100.707,-478.659,-162.214,-687.500,948.760,1952.780
351,48006.735000,-135.587,-1.012,-131.459,81.422,-475.561,-179.597,-810.500,1332.760,1983.780
352,48006.760000,-120.902,12.142,-166.054,41.674,-466.465,-204.500,-900.500,1475.760,1972.780
353,48006.780000,-82.723,21.249,-201.637,19.358,-462.378,-216.908,-961.500,1295.760,1862.780
354,48006.795000,-84.681,39.462,-198.672,-16.669,-445.584,-234.995,-1034.500,1353.760,1744.780
355,48006.817000,-40.627,53.628,-197.683,-29.210,-436.747,-249.550,-1175.500,1609.760,1673.780
356,48006.837000,5.384,68.806,-212.510,-59.348,-420.006,-268.726,-1368.500,1474.760,1559.780
357,48006.857000,-20.069,93.091,-232.278,-95.522,-402.253,-278.935,-1529.500,1156.760,1447.780
358,48006.880000,-8.321,104.221,-216.463,-115.034,-393.360,-286.476,-1565.500,1190.760,1414.780
359,48006.912000,56.291,114.340,-226.347,-154.248,-369.779,-293.686,-1626.500,1436.760,1405.780
360,48006.937000,66.080,126.482,-274.780,-170.972,-358.018,-294.388,-1775.500,1060.760,1369.780
361,48006.959000,52.375,161.897,-272.803,-199.621,-339.385,-287.996,-1856.500,552.760,1316.780
362,48006.969000,67.059,197.312,-262.919,-219.244,-335.339,-286.669,-1831.500,566.760,1359.780
363,48006.982000,87.618,199.336,-295.537,-252.828,-319.567,-276.249,-1800.500,406.760,1475.780
364,48007.0,64.122,207.431,-318.270,-268.711,-311.694,-267.117,-1734.500,29.760,1549.780
365,48007.21000,43.564,235.763,-305.421,-297.489,-295.973,-251.859,-1573.500,58.760,1665.780
366,48007.34000,61.185,259.036,-294.548,-328.226,-274.426,-239.527,-1400.500,242.760,1787.780
367,48007.61000,68.038,256.000,-335.073,-335.311,-265.665,-230.552,-1328.500,167.760,1851.780
368,48007.70000,35.732,262.071,-345.946,-360.229,-244.175,-215.370,-1167.500,-124.240,1920.780
369,48007.99000,-3.426,271.178,-342.981,-366.336,-231.552,-208.385,-954.500,-74.240,2041.780
370,48007.117000,16.153,278.261,-367.691,-395.091,-205.182,-200.032,-722.500,142.760,2113.780
371,48007.140000,35.732,279.273,-385.483,-400.212,-191.600,-194.050,-477.500,-19.240,2117.780
372,48007.165000,6.363,281.296,-397.344,-411.259,-166.352,-190.931,-248.500,-274.240,2110.780
373,48007.182000,-14.195,281.296,-400.309,-423.318,-143.033,-184.838,8.500,-212.240,2089.780
374,48007.205000,-19.090,275.225,-399.320,-422.385,-132.398,-187.821,304.500,-97.240,2077.780
375,48007.232000,-15.174,261.059,-404.263,-427.379,-108.162,-194.652,552.500,23.760,2064.780
376,48007.252000,11.258,258.024,-403.274,-424.516,-94.642,-197.672,676.500,62.760,2061.780
377,48007.270000,38.669,233.739,-391.413,-426.444,-75.264,-209.474,928.500,-134.240,2054.780
378,48007.287000,23.985,226.656,-388.448,-425.415,-67.527,-216.392,1111.500,-558.240,1921.780
379,48007.308000,-2.447,235.763,-374.610,-418.432,-48.224,-234.258,1340.500,-619.240,1794.780
380,48007.325000,8.321,222.609,-355.830,-414.349,-32.763,-252.069,1598.500,-381.240,1725.780
381,48007.344000,52.375,212.490,-338.039,-405.336,-30.896,-265.028,1771.500,-336.240,1652.780
382,48007.357000,41.606,212.490,-315.305,-387.493,-16.524,-286.034,1887.500,-514.240,1548.780
383,48007.390000,19.090,202.372,-279.722,-385.391,-7.823,-298.880,2030.500,-320.240,1475.780
384,48007.406000,34.753,173.028,-251.058,-356.575,-1.281,-327.946,2105.500,-137.240,1387.780
385,48007.435000,42.585,158.862,-228.324,-349.580,3.505,-338.905,2119.500,-98.240,1317.780
386,48007.457000,41.606,148.743,-202.625,-325.849,15.888,-360.013,2147.500,-107.240,1203.780
387,48007.480000,23.985,120.411,-182.857,-321.494,16.845,-385.687,2115.500,-153.240,1076.780
388,48007.513000,23.006,86.008,-164.077,-294.002,21.441,-394.054,2034.500,-159.240,907.780
389,48007.513000,21.048,73.866,-154.193,-269.212,23.173,-414.184,1959.500,-285.240,731.780
390,48007.540000,-2.447,68.806,-147.274,-250.543,25.912,-420.424,1906.500,-426.240,565.780
391,48007.562000,-38.669,53.628,-115.645,-228.712,20.893,-435.571,1830.500,-246.240,380.780
392,48007.581000,-42.585,29.344,-107.737,-217.801,19.836,-443.639,1744.500,3.760,205.780
393,48007.602000,-36.711,14.166,-110.703,-192.171,23.487,-456.894,1640.500,85.760,55.780
394,48007.620000,-43.564,10.119,-110.703,-183.288,26.315,-462.961,1590.500,107.760,-14.220
395,48007.642000,-65.101,-2.024,-102.795,-161.719,32.897,-469.257,1474.500,248.760,-155.220
396,48007.665000,-58.249,-27.320,-97.853,-141.095,41.425,-478.492,1323.500,374.760,-307.220
397,48007.682000,-44.543,-46.545,-98.842,-128.366,40.342,-478.716,1183.500,284.760,-534.220
398,48007.696000,-45.522,-50.593,-97.853,-110.667,40.187,-483.952,1061.500,183.760,-788.220
399,48007.719000,-49.438,-49.581,-90.934,-108.719,43.073,-484.974,934.500,247.760,-1029.220
400,48007.739000,-40.627,-49.581,-83.027,-94.034,47.779,-488.193,807.500,419.760,-1245.220
401,48007.764000,-16.153,-45.534,-73.143,-90.164,48.709,-486.293,709.500,463.760,-1420.220
402,48007.786000,-6.363,-35.415,-73.143,-78.425,58.281,-491.434,607.500,460.760,-1564.220
403,48007.804000,0.489,-30.356,-57.328,-70.677,66.916,-491.582,546.500,557.760,-1632.220
404,48007.826000,25.943,-31.368,-51.398,-67.751,69.793,-492.621,401.500,607.760,-1771.220
405,48007.856000,50.417,-19.225,-60.293,-62.937,74.584,-490.743,272.500,440.760,-1910.220
406,48007.889000,55.312,-12.142,-72.154,-70.801,78.524,-490.609,184.500,350.760,-2015.220
407,48007.902000,45.522,2.024,-68.201,-72.881,88.214,-488.614,104.500,573.760,-2100.220
408,48007.906000,63.143,5.059,-61.282,-65.149,91.041,-484.816,-17.500,734.760,-2190.220
409,48007.944000,116.987,12.142,-81.050,-75.014,97.901,-483.666,-95.500,375.760,-2320.220
410,48007.946000,142.440,38.451,-99.830,-87.778,98.982,-481.472,-146.500,75.760,-2433.220
411,48007.967000,103.281,47.557,-86.981,-86.825,98.004,-479.519,-202.500,191.760,-2530.220
412,48007.987000,117.966,43.510,-95.876,-104.508,102.032,-477.242,-333.500,509.760,-2600.220
413,48008.10000,184.535,57.676,-122.564,-114.363,104.053,-474.116,-449.500,195.760,-2772.220
414,48008.24000,189.430,99.162,-155.181,-129.964,92.583,-470.874,-501.500,-122.240,-2889.220
415,48008.51000,174.746,120.411,-140.355,-133.868,89.716,-469.817,-546.500,323.760,-2940.220
416,48008.71000,243.273,124.459,-188.788,-150.640,87.923,-460.658,-606.500,406.760,-3080.220
417,48008.87000,240.337,168.980,-212.510,-165.212,82.255,-463.347,-712.500,-272.240,-3220.220
418,48008.116000,199.220,198.324,-203.614,-181.771,57.245,-454.164,-767.500,-695.240,-3277.220
419,48008.134000,205.094,200.348,-218.440,-197.160,26.430,-452.872,-800.500,-709.240,-3318.220
420,48008.156000,243.273,206.419,-275.768,-204.023,14.876,-445.845,-803.500,-844.240,-3368.220
421,48008.174000,218.799,239.810,-302.456,-219.364,-34.327,-437.641,-906.500,-1502.240,-3459.220
422,48008.196000,189.430,253.976,-304.432,-220.190,-56.571,-434.647,-1019.500,-1813.240,-3414.220
423,48008.221000,172.788,258.024,-344.958,-227.833,-102.949,-420.675,-1039.500,-1652.240,-3281.220
424,48008.236000,118.945,269.154,-388.448,-233.630,-120.314,-415.630,-952.500,-1545.240,-3190.220
425,48008.269000,63.143,280.285,-405.251,-227.620,-158.107,-403.878,-768.500,-1068.240,-3033.220
426,48008.287000,86.639,292.427,-416.124,-221.605,-181.382,-400.020,-526.500,-351.240,-2869.220
427,48008.306000,129.713,306.593,-421.066,-210.848,-190.192,-395.278,-255.500,-170.240,-2763.220
428,48008.324000,112.092,308.617,-406.239,-190.043,-212.626,-398.573,36.500,-379.240,-2649.220
429,48008.347000,76.849,308.617,-402.286,-189.019,-221.344,-396.612,179.500,-384.240,-2578.220
430,48008.367000,88.597,301.534,-402.286,-162.380,-236.090,-401.988,505.500,-98.240,-2401.220
431,48008.385000,118.945,288.379,-390.425,-147.650,-238.156,-404.215,837.500,13.760,-2197.220
432,48008.405000,103.281,286.356,-379.552,-116.058,-250.040,-414.605,1084.500,-183.240,-2054.220
433,48008.425000,90.554,278.261,-371.645,-79.679,-260.038,-420.159,1336.500,-197.240,-1915.220
434,48008.447000,111.113,268.142,-361.761,-60.073,-264.086,-420.501,1594.500,-136.240,-1753.220
435,48008.470000,116.987,258.024,-340.015,-19.806,-271.218,-426.127,1812.500,-216.240,-1573.220
436,48008.485000,103.281,246.893,-329.143,0.672,-267.537,-424.525,1999.500,-211.240,-1361.220
437,48008.507000,109.155,230.704,-308.386,47.677,-277.641,-422.392,2175.500,-123.240,-1111.220
438,48008.535000,118.945,210.466,-285.652,75.065,-274.987,-423.864,2236.500,-143.240,-991.220
439,48008.555000,114.050,191.241,-271.815,117.011,-276.345,-416.729,2318.500,-259.240,-805.220
440,48008.570000,104.260,174.040,-249.081,132.399,-277.470,-401.248,2381.500,-322.240,-641.220
441,48008.592000,97.407,153.802,-231.290,175.401,-279.800,-398.069,2420.500,-326.240,-465.220
442,48008.612000,103.281,133.565,-210.533,218.179,-286.015,-380.114,2428.500,-331.240,-286.220
443,48008.636000,103.281,113.328,-192.741,235.654,-286.183,-372.547,2377.500,-458.240,-135.220
444,48008.652000,83.702,88.032,-183.846,266.474,-293.270,-341.581,2315.500,-559.240,-5.220
445,48008.690000,72.933,66.783,-164.077,283.015,-300.202,-333.006,2252.500,-520.240,137.780
446,48008.709000,74.891,44.522,-156.170,312.892,-311.151,-302.019,2164.500,-564.240,267.780
447,48008.717000,71.954,20.237,-147.274,318.522,-313.153,-287.350,2112.500,-614.240,331.780
448,48008.735000,55.312,4.047,-131.459,332.787,-326.861,-257.068,1999.500,-713.240,467.780
449,48008.752000,49.438,-11.130,-118.610,345.139,-341.516,-228.720,1888.500,-793.240,603.780
450,48008.776000,44.543,-29.344,-116.633,347.817,-349.300,-210.054,1746.500,-967.240,711.780
451,48008.795000,25.943,-38.451,-109.714,352.246,-364.857,-175.658,1616.500,-1108.240,799.780
452,48008.817000,10.279,-44.522,-100.819,358.910,-380.417,-157.053,1513.500,-1061.240,904.780
453,48008.835000,6.363,-54.640,-87.969,350.678,-392.951,-127.359,1407.500,-934.240,1024.780
454,48008.857000,-4.405,-61.723,-82.039,339.762,-402.541,-113.372,1300.500,-819.240,1124.780
455,48008.875000,-20.069,-65.771,-79.073,329.634,-416.022,-86.597,1202.500,-737.240,1212.780
456,48008.897000,-26.922,-70.830,-76.108,313.792,-433.312,-66.608,1152.500,-510.240,1253.780
457,48008.920000,-35.732,-79.937,-78.085,311.785,-441.040,-59.672,1008.500,-247.240,1280.780
458,48008.942000,-40.627,-77.913,-80.062,290.217,-447.622,-53.376,856.500,105.760,1275.780
459,48008.966000,-59.228,-71.842,-80.062,276.580,-452.334,-54.114,753.500,571.760,1294.780
460,48008.981000,-58.249,-76.901,-69.189,254.363,-464.696,-63.551,626.500,1047.760,1421.780
461,48009.2000,-35.732,-79.937,-72.154,244.708,-463.631,-71.257,419.500,1079.760,1552.780
462,48009.20000,-29.859,-67.794,-79.073,223.486,-470.194,-84.656,186.500,799.760,1623.780
463,48009.47000,-66.080,-50.593,-93.900,207.104,-478.740,-94.200,32.500,731.760,1681.780
464,48009.76000,-83.702,-40.474,-101.807,181.803,-482.372,-99.655,-26.500,779.760,1738.780
465,48009.106000,-76.849,-32.379,-101.807,150.847,-486.907,-116.822,-156.500,898.760,1771.780
466,48009.125000,-90.554,-16.190,-111.691,129.457,-480.896,-127.280,-309.500,947.760,1819.780
467,48009.129000,-105.239,-2.024,-122.564,95.635,-483.464,-149.321,-439.500,1068.760,1853.780
468,48009.151000,-90.554,6.071,-127.506,88.914,-480.491,-158.066,-613.500,1104.760,1862.780
469,48009.160000,-70.975,15.178,-141.344,46.162,-475.243,-177.005,-794.500,1032.760,1885.780
470,48009.186000,-90.554,19.225,-170.996,26.740,-477.960,-183.549,-883.500,1039.760,1882.780
471,48009.209000,-99.365,35.415,-173.961,-8.273,-465.045,-201.649,-1008.500,1106.760,1863.780
472,48009.235000,-79.786,61.723,-177.915,-44.325,-451.157,-216.779,-1156.500,976.760,1855.780
473,48009.255000,-55.312,70.830,-195.707,-63.843,-447.104,-221.361,-1228.500,787.760,1833.780
474,48009.270000,-66.080,78.925,-221.405,-104.043,-434.161,-222.633,-1295.500,484.760,1748.780
475,48009.287000,-58.249,128.506,-223.382,-114.772,-430.190,-226.386,-1325.500,497.760,1715.780
476,48009.315000,-36.711,146.719,-230.301,-152.045,-416.306,-227.712,-1373.500,560.760,1694.780
477,48009.328000,-58.249,142.672,-260.942,-171.652,-406.452,-230.330,-1440.500,459.760,1690.780
478,48009.352000,-33.774,165.945,-254.023,-201.166,-392.643,-227.855,-1400.500,521.760,1672.780
479,48009.370000,3.426,195.289,-243.151,-231.859,-373.997,-216.505,-1355.500,516.760,1713.780
480,48009.396000,7.342,208.443,-253.035,-250.522,-362.217,-218.157,-1329.500,258.760,1802.780
481,48009.425000,-26.922,206.419,-294.548,-280.297,-344.552,-202.884,-1270.500,-16.240,1901.780
482,48009.444000,-29.859,219.573,-302.456,-294.101,-338.626,-199.693,-1195.500,11.760,1949.780
483,48009.466000,-11.258,243.858,-296.525,-317.936,-315.202,-191.424,-1017.500,264.760,2061.780
484,48009.484000,-11.258,244.870,-316.293,-339.596,-304.367,-189.084,-862.500,462.760,2149.780
485,48009.499000,-15.174,234.751,-332.108,-362.500,-268.372,-184.783,-707.500,656.760,2238.780
486,48009.516000,-18.111,251.953,-346.934,-376.422,-240.191,-186.539,-601.500,1013.760,2311.780
487,48009.539000,-26.922,266.119,-383.506,-387.322,-213.967,-192.283,-490.500,1671.760,2463.780
488,48009.559000,7.342,263.083,-402.286,-409.171,-169.266,-196.871,-290.500,2407.760,2651.780
489,48009.579000,51.396,247.905,-409.205,-419.041,-141.113,-206.574,-114.500,2699.760,2759.780
490,48009.595000,81.744,239.810,-411.181,-427.220,-89.762,-213.381,-14.500,2466.760,2763.780
491,48009.621000,124.818,256.000,-419.089,-429.444,-58.787,-214.362,21.500,2215.760,2766.780
492,48009.641000,151.250,249.929,-426.996,-434.641,-18.107,-218.256,192.500,1424.760,2811.780
493,48009.656000,127.755,253.976,-425.019,-427.865,-0.751,-223.318,390.500,439.760,2833.780
494,48009.670000,92.512,251.953,-421.066,-420.253,32.074,-228.413,625.500,-153.240,2798.780
495,48009.695000,73.912,238.798,-407.228,-416.321,62.044,-245.254,909.500,-334.240,2730.780
496,48009.722000,66.080,221.597,-380.541,-411.423,74.583,-252.246,1200.500,-353.240,2588.780
497,48009.754000,58.249,202.372,-358.795,-395.644,100.581,-273.229,1447.500,-259.240,2361.780
498,48009.769000,54.333,183.146,-325.189,-379.904,112.058,-284.350,1642.500,-70.240,2135.780
499,48009.784000,59.228,159.874,-293.560,-364.064,133.220,-306.313,1717.500,33.760,1880.780
500,48009.806000,74.891,139.636,-273.792,-349.293,139.867,-315.443,1829.500,149.760,1759.780
501,48009.823000,87.618,130.530,-249.081,-324.567,156.114,-339.526,1895.500,68.760,1506.780
502,48009.840000,80.765,121.423,-218.440,-298.851,163.642,-359.679,1974.500,-154.240,1249.780
503,48009.862000,59.228,109.281,-183.846,-286.011,169.340,-369.757,2025.500,-291.240,992.780
504,48009.885000,56.291,88.032,-168.031,-260.233,170.096,-389.903,2053.500,-356.240,753.780
505,48009.902000,48.459,81.960,-146.286,-236.567,168.925,-400.165,2052.500,-403.240,537.780
506,48009.930000,40.627,72.854,-138.378,-211.768,169.689,-420.294,2055.500,-400.240,374.780
507,48009.952000,29.859,58.688,-135.413,-200.847,163.793,-426.387,2041.500,-374.240,206.780
508,48009.967000,19.090,35.415,-113.668,-168.297,163.514,-441.729,2012.500,-345.240,104.780
509,48010.1000,20.069,29.344,-104.772,-144.666,160.405,-449.035,1943.500,-287.240,-99.220
510,48010.4000,12.237,23.273,-94.888,-127.902,161.229,-457.208,1886.500,-175.240,-274.220
511,48010.25000,16.153,-6.071,-83.027,-103.327,161.980,-464.535,1790.500,-88.240,-436.220
512,48010.55000,23.985,-26.308,-81.050,-87.559,160.877,-470.719,1674.500,-228.240,-643.220
513,48010.72000,20.069,-34.403,-71.166,-69.858,152.978,-472.008,1550.500,-388.240,-846.220
514,48010.95000,11.258,-40.474,-62.270,-63.918,154.864,-477.037,1417.500,-415.240,-1049.220
515,48010.112000,10.279,-41.486,-58.317,-41.272,144.989,-480.380,1285.500,-341.240,-1260.220
516,48010.136000,21.048,-37.439,-60.293,-36.345,146.882,-483.423,1158.500,-256.240,-1457.220
517,48010.155000,26.922,-35.415,-50.409,-21.667,144.813,-482.695,1095.500,-209.240,-1542.220
518,48010.181000,33.774,-34.403,-41.514,-12.739,140.868,-487.771,950.500,-104.240,-1701.220
519,48010.199000,44.543,-29.344,-41.514,-10.895,143.747,-482.885,792.500,28.760,-1840.220
520,48010.241000,59.228,-19.225,-33.606,-5.068,146.595,-482.007,652.500,111.760,-1974.220
521,48010.260000,80.765,-23.273,-29.653,-9.036,154.371,-482.930,499.500,83.760,-2139.220
522,48010.260000,101.323,-10.119,-42.502,-10.023,153.412,-481.927,375.500,-46.240,-2291.220
523,48010.282000,93.491,12.142,-47.444,-12.041,156.330,-479.926,305.500,18.760,-2420.220
524,48010.300000,103.281,11.130,-52.386,-12.068,159.232,-479.929,232.500,163.760,-2532.220
525,48010.322000,134.608,29.344,-59.305,-26.807,166.137,-479.676,197.500,154.760,-2680.220
526,48010.345000,146.356,54.640,-61.282,-33.691,164.262,-476.599,189.500,154.760,-2744.220
527,48010.365000,146.356,55.652,-79.073,-53.470,172.171,-468.382,137.500,283.760,-2839.220
528,48010.384000,170.830,60.711,-101.807,-55.463,176.058,-468.352,50.500,400.760,-2964.220
529,48010.406000,223.694,83.984,-106.749,-75.015,174.302,-468.004,-22.500,174.760,-3094.220
530,48010.426000,253.063,110.292,-127.506,-84.764,168.585,-466.840,-74.500,-246.240,-3217.220
531,48010.446000,225.652,123.447,-146.286,-100.384,164.858,-466.559,-119.500,-146.240,-3280.220
532,48010.466000,242.294,138.625,-170.008,-119.838,152.460,-466.201,-93.500,-4.240,-3289.220
533,48010.506000,289.285,165.945,-195.707,-130.591,145.783,-463.049,-58.500,-193.240,-3255.220
534,48010.510000,285.369,191.241,-213.498,-142.174,132.348,-464.797,18.500,-76.240,-3160.220
535,48010.531000,330.402,197.312,-237.220,-143.187,130.419,-461.824,78.500,27.760,-3105.220
536,48010.551000,344.107,203.383,-254.023,-151.815,111.151,-461.649,213.500,-167.240,-3006.220
537,48010.569000,314.738,203.383,-272.803,-160.506,100.591,-462.467,290.500,-640.240,-2887.220
538,48010.591000,302.011,209.455,-291.583,-162.215,77.393,-464.379,339.500,-765.240,-2747.220
539,48010.610000,313.759,215.526,-306.409,-158.143,67.687,-468.377,445.500,-819.240,-2595.220
540,48010.632000,313.759,207.431,-320.247,-160.760,38.694,-471.250,590.500,-1175.240,-2480.220
541,48010.656000,282.432,208.443,-332.108,-145.658,3.740,-477.383,641.500,-1563.240,-2406.220
542,48010.686000,272.642,220.585,-341.992,-138.622,-14.702,-478.470,748.500,-1790.240,-2303.220
543,48010.715000,248.168,223.621,-351.876,-119.613,-58.403,-479.740,869.500,-1938.240,-2175.220
544,48010.715000,185.514,226.656,-359.784,-107.711,-75.923,-479.930,924.500,-2094.240,-2097.220
545,48010.732000,187.472,232.727,-363.737,-87.847,-109.961,-479.257,1078.500,-1755.240,-1897.220
546,48010.752000,220.757,230.704,-349.900,-71.036,-125.589,-481.505,1282.500,-1599.240,-1700.220
547,48010.770000,171.809,219.573,-344.958,-42.522,-155.844,-474.099,1405.500,-1895.240,-1540.220
548,48010.797000,129.713,221.597,-344.958,-6.181,-184.235,-467.817,1532.500,-1721.240,-1392.220
549,48010.817000,153.208,213.502,-337.050,7.581,-195.003,-466.079,1750.500,-1328.240,-1180.220
550,48010.840000,152.229,196.300,-319.259,47.704,-216.661,-455.935,1886.500,-1361.240,-1012.220
551,48010.855000,112.092,182.134,-306.409,66.280,-222.639,-452.319,1970.500,-1335.240,-906.220
552,48010.875000,111.113,169.992,-290.595,110.204,-241.435,-437.323,2031.500,-1213.240,-752.220
553,48010.895000,116.987,155.826,-273.792,129.768,-250.325,-432.736,2119.500,-1099.240,-691.220
554,48010.912000,81.744,143.684,-274.780,173.518,-263.324,-410.852,2138.500,-1152.240,-596.220
555,48010.944000,70.975,130.530,-261.931,210.505,-276.256,-393.772,2193.500,-969.240,-485.220
556,48010.962000,82.723,117.375,-242.162,223.953,-279.298,-378.255,2246.500,-812.240,-362.220
557,48010.985000,69.996,95.115,-234.255,268.691,-295.209,-355.401,2238.500,-859.240,-259.220
558,48011.2000,52.375,81.960,-224.371,274.258,-292.376,-339.751,2224.500,-768.240,-165.220
559,48011.27000,53.354,69.818,-209.544,306.223,-304.303,-315.691,2226.500,-584.240,-25.220
560,48011.45000,60.207,53.628,-190.764,317.715,-307.327,-300.140,2208.500,-511.240,121.780
561,48011.67000,48.459,34.403,-177.915,346.569,-311.494,-270.128,2179.500,-529.240,258.780
562,48011.90000,37.690,17.202,-167.042,364.783,-325.235,-241.885,2136.500,-513.240,333.780
563,48011.107000,43.564,4.047,-152.216,366.325,-325.276,-218.285,2089.500,-490.240,478.780
564,48011.127000,34.753,-9.107,-143.320,382.557,-343.840,-186.063,2014.500,-577.240,614.780
565,48011.160000,28.880,-24.285,-127.506,386.230,-347.761,-170.373,1958.500,-648.240,745.780
566,48011.174000,15.174,-37.439,-114.656,390.651,-364.287,-134.991,1882.500,-716.240,880.780
567,48011.192000,8.321,-49.581,-107.737,383.518,-372.952,-114.181,1807.500,-755.240,1002.780
568,48011.212000,-4.405,-55.652,-99.830,374.336,-394.187,-81.507,1739.500,-787.240,1128.780
569,48011.235000,-21.048,-63.747,-96.865,373.924,-407.760,-50.966,1672.500,-798.240,1239.780
570,48011.247000,-33.774,-68.806,-84.015,355.110,-415.347,-33.888,1644.500,-778.240,1334.780
571,48011.270000,-50.417,-71.842,-69.189,337.208,-432.626,-7.955,1573.500,-687.240,1383.780
572,48011.290000,-61.185,-81.960,-58.317,330.126,-439.352,8.913,1474.500,-526.240,1490.780
573,48011.311000,-64.122,-91.067,-48.432,302.516,-455.569,30.094,1341.500,-422.240,1574.780
574,48011.341000,-70.975,-93.091,-46.456,287.676,-460.284,42.176,1189.500,-371.240,1633.780
575,48011.350000,-85.660,-92.079,-40.525,257.268,-474.531,54.544,1034.500,-271.240,1665.780
576,48011.377000,-94.470,-97.138,-34.595,246.411,-479.278,62.617,862.500,-195.240,1677.780
577,48011.402000,-98.386,-94.103,-30.641,221.934,-486.800,67.981,683.500,-131.240,1674.780
578,48011.416000,-105.239,-84.996,-33.606,192.564,-498.149,75.406,530.500,14.760,1676.780
579,48011.435000,-114.050,-74.877,-34.595,165.281,-504.668,72.943,459.500,136.760,1689.780
580,48011.454000,-107.197,-72.854,-35.583,141.997,-509.283,64.500,320.500,384.760,1695.780
581,48011.471000,-101.323,-65.771,-34.595,128.446,-512.054,57.852,168.500,539.760,1715.780
582,48011.496000,-103.281,-50.593,-38.548,95.455,-515.607,44.657,15.500,727.760,1757.780
583,48011.525000,-108.176,-36.427,-49.421,81.974,-522.246,36.043,-128.500,885.760,1817.780
584,48011.540000,-120.902,-24.285,-67.212,54.930,-517.137,13.873,-231.500,1169.760,1831.780
585,48011.556000,-131.671,-7.083,-70.178,19.315,-518.711,-17.982,-337.500,1668.760,1905.780
586,48011.572000,-122.860,-1.012,-78.085,-2.872,-513.649,-38.269,-529.500,2058.760,1941.780
587,48011.595000,-98.386,1.012,-97.853,-35.493,-508.470,-77.076,-804.500,2110.760,1922.780
588,48011.622000,-98.386,18.213,-118.610,-51.870,-498.625,-96.486,-947.500,2099.760,1902.780
589,48011.646000,-91.533,50.593,-127.506,-86.623,-485.696,-129.358,-1191.500,2191.760,1895.780
590,48011.659000,-55.312,79.937,-132.448,-110.898,-473.848,-145.678,-1385.500,2212.760,1836.780
591,48011.680000,-44.543,81.960,-183.846,-141.973,-452.256,-169.765,-1573.500,1937.760,1764.780
592,48011.700000,-39.648,101.186,-219.429,-175.092,-428.715,-189.880,-1723.500,1751.760,1693.780
593,48011.722000,-43.564,176.063,-230.301,-199.610,-414.945,-193.400,-1802.500,1671.760,1666.780
594,48011.741000,-11.258,162.909,-280.710,-233.846,-389.468,-206.607,-1776.500,1582.760,1706.780
595,48011.764000,16.153,194.277,-300.479,-244.734,-375.826,-206.430,-1745.500,1224.760,1669.780
596,48011.789000,-28.880,226.656,-314.317,-274.363,-351.377,-202.981,-1688.500,875.760,1655.780
597,48011.807000,-44.543,232.727,-334.085,-297.979,-342.460,-199.620,-1628.500,906.760,1658.780
598,48011.840000,3.426,211.478,-362.749,-323.616,-319.010,-200.179,-1440.500,1123.760,1693.780
599,48011.859000,-7.342,223.621,-378.564,-331.656,-303.464,-196.117,-1277.500,957.760,1627.780
600,48011.867000,-29.859,232.727,-367.691,-354.383,-281.010,-194.757,-1080.500,937.760,1580.780
601,48011.892000,-14.195,237.787,-368.680,-373.338,-246.985,-191.508,-896.500,1235.760,1558.780
602,48011.910000,20.069,249.929,-366.703,-379.219,-238.221,-195.352,-733.500,1418.760,1534.780
603,48011.927000,23.985,267.130,-365.714,-387.288,-212.030,-195.240,-597.500,1368.760,1513.780
604,48011.950000,26.922,277.249,-358.795,-404.126,-191.564,-193.981,-445.500,1372.760,1545.780
605,48011.975000,51.396,270.166,-358.795,-415.087,-164.376,-196.772,-297.500,1276.760,1602.780
606,48011.997000,59.228,257.012,-370.656,-412.198,-151.822,-200.776,-226.500,1094.760,1624.780
607,48012.16000,27.901,249.929,-368.680,-420.249,-125.630,-201.649,-84.500,687.760,1592.780
608,48012.36000,12.237,237.787,-375.598,-423.327,-108.189,-202.599,119.500,583.760,1591.780
609,48012.54000,32.795,221.597,-366.703,-431.228,-92.636,-206.415,366.500,600.760,1586.780
610,48012.74000,44.543,224.632,-370.656,-427.353,-75.251,-213.395,569.500,314.760,1538.780
611,48012.91000,28.880,215.526,-373.622,-428.309,-62.658,-221.269,774.500,8.760,1490.780
612,48012.129000,37.690,208.443,-382.517,-422.389,-49.158,-231.234,983.500,-250.240,1409.780
613,48012.147000,26.922,208.443,-373.622,-418.337,-47.250,-240.168,1231.500,-538.240,1276.780
614,48012.161000,-14.195,218.561,-359.784,-402.494,-37.703,-256.211,1502.500,-530.240,1213.780
615,48012.165000,4.405,207.431,-339.027,-395.388,-26.136,-277.023,1644.500,-164.240,1198.780
616,48012.187000,47.480,198.324,-324.201,-385.414,-18.471,-291.976,1837.500,50.760,1132.780
617,48012.210000,30.837,191.241,-297.514,-369.345,-12.783,-318.847,1953.500,-47.240,1062.780
618,48012.232000,6.363,183.146,-257.977,-357.553,-3.208,-326.942,2057.500,180.760,999.780
619,48012.255000,24.964,167.968,-229.313,-333.736,13.052,-354.948,2162.500,577.760,962.780
620,48012.272000,45.522,148.743,-205.591,-322.888,18.766,-363.022,2187.500,671.760,929.780
621,48012.292000,44.543,128.506,-179.892,-297.148,31.135,-387.119,2158.500,551.760,843.780
622,48012.320000,38.669,112.316,-166.054,-284.111,45.555,-412.962,2091.500,378.760,718.780
623,48012.340000,16.153,94.103,-149.251,-256.724,54.017,-417.394,2057.500,331.760,566.780
624,48012.365000,12.237,67.794,-115.645,-223.126,53.733,-436.693,1974.500,314.760,474.780
625,48012.385000,14.195,43.510,-100.819,-212.365,59.442,-439.843,1847.500,236.760,243.780
626,48012.408000,-0.489,23.273,-98.842,-189.644,62.153,-454.031,1757.500,92.760,-22.220
627,48012.426000,-12.237,5.059,-93.900,-179.807,62.067,-457.158,1655.500,48.760,-290.220
628,48012.447000,-12.237,-6.071,-92.911,-153.216,65.709,-469.446,1525.500,123.760,-516.220
629,48012.461000,-6.363,-16.190,-91.923,-140.452,64.627,-471.640,1410.500,190.760,-730.220
630,48012.484000,-6.363,-21.249,-78.085,-126.667,66.444,-477.793,1298.500,271.760,-935.220
631,48012.511000,1.468,-25.296,-76.108,-113.013,73.092,-479.026,1190.500,315.760,-1138.220
632,48012.520000,11.258,-30.356,-79.073,-100.145,70.081,-486.142,1131.500,330.760,-1234.220
633,48012.547000,15.174,-23.273,-78.085,-83.556,78.638,-488.414,1011.500,404.760,-1396.220
634,48012.565000,20.069,-6.071,-76.108,-81.634,82.490,-488.453,896.500,541.760,-1514.220
635,48012.587000,34.753,1.012,-58.317,-71.911,87.237,-487.646,797.500,637.760,-1641.220
636,48012.605000,48.459,0.000,-44.479,-68.086,94.940,-486.738,673.500,614.760,-1795.220
637,48012.621000,69.017,1.012,-52.386,-64.270,107.481,-487.805,541.500,478.760,-1970.220
638,48012.639000,70.975,22.261,-59.305,-63.379,111.339,-484.872,440.500,428.760,-2086.220
639,48012.664000,68.038,38.451,-55.351,-67.381,117.177,-482.839,344.500,582.760,-2181.220
640,48012.694000,91.533,39.462,-54.363,-71.331,121.082,-482.773,241.500,580.760,-2333.220
641,48012.715000,121.881,45.534,-64.247,-72.380,128.830,-482.764,200.500,497.760,-2425.220
642,48012.735000,121.881,71.842,-65.236,-79.343,133.726,-478.709,132.500,416.760,-2559.220
643,48012.757000,138.524,94.103,-67.212,-83.240,133.762,-479.624,60.500,466.760,-2682.220
644,48012.772000,178.662,104.221,-88.958,-96.046,131.937,-473.489,-50.500,277.760,-2823.220
645,48012.790000,189.430,125.470,-102.795,-106.800,127.196,-471.324,-166.500,22.760,-2955.220
646,48012.812000,184.535,164.933,-112.680,-125.417,126.396,-469.025,-251.500,-44.240,-3065.220
647,48012.835000,206.073,201.360,-131.459,-138.056,113.933,-466.818,-285.500,-124.240,-3202.220
648,48012.858000,233.484,222.609,-156.170,-144.834,104.321,-465.702,-258.500,-346.240,-3290.220
649,48012.875000,226.631,219.573,-189.776,-155.358,80.234,-466.472,-239.500,-418.240,-3322.220
650,48012.902000,226.631,208.443,-232.278,-165.098,73.551,-465.307,-236.500,-426.240,-3349.220
651,48012.921000,252.084,221.597,-264.896,-173.680,43.638,-462.167,-196.500,-598.240,-3383.220
652,48012.950000,262.853,237.787,-290.595,-171.599,30.077,-462.188,-148.500,-962.240,-3403.220
653,48012.960000,247.189,258.024,-321.236,-175.184,-3.746,-463.070,-100.500,-1102.240,-3374.220
654,48012.982000,236.421,291.415,-371.645,-176.927,-30.817,-461.038,14.500,-1058.240,-3233.220
655,48013.5000,228.589,291.415,-385.483,-167.933,-51.213,-461.173,231.500,-1034.240,-2989.220
656,48013.25000,222.715,293.439,-397.344,-154.894,-80.348,-464.323,437.500,-1038.240,-2707.220
657,48013.53000,185.514,294.451,-411.181,-153.870,-91.001,-461.376,661.500,-848.240,-2371.220
658,48013.68000,160.061,289.391,-411.181,-128.165,-108.640,-467.717,807.500,-557.240,-1970.220
659,48013.76000,198.241,293.439,-369.668,-111.540,-103.952,-469.985,1193.500,173.760,-1779.220
660,48013.98000,257.958,284.332,-345.946,-88.827,-106.081,-481.213,1539.500,264.760,-1477.220
661,48013.119000,221.736,260.047,-354.842,-55.416,-119.926,-482.773,1746.500,-453.240,-1305.220
662,48013.135000,178.662,264.095,-358.795,-33.775,-126.890,-486.101,1837.500,-861.240,-1239.220
663,48013.161000,169.851,257.012,-347.923,9.368,-138.892,-485.866,2027.500,-651.240,-1092.220
664,48013.184000,161.040,242.846,-310.363,25.976,-138.077,-485.176,2206.500,-392.240,-921.220
665,48013.204000,177.683,223.621,-284.664,69.005,-143.309,-481.993,2372.500,-312.240,-727.220
666,48013.225000,176.704,202.372,-270.826,95.408,-147.422,-479.502,2464.500,-418.240,-528.220
667,48013.246000,158.103,184.158,-253.035,142.282,-154.629,-471.463,2484.500,-470.240,-421.220
668,48013.264000,149.293,165.945,-228.324,186.090,-158.914,-457.466,2502.500,-527.240,-215.220
669,48013.277000,159.082,148.743,-204.602,201.670,-167.772,-448.872,2510.500,-645.240,-54.220
670,48013.296000,141.461,121.423,-190.764,245.430,-183.674,-426.000,2476.500,-994.240,34.780
671,48013.334000,113.071,100.174,-173.961,266.768,-191.624,-411.602,2402.500,-1181.240,99.780
672,48013.366000,104.260,78.925,-165.066,301.652,-209.385,-383.649,2322.500,-1212.240,182.780
673,48013.385000,120.902,56.664,-152.216,320.066,-224.083,-366.237,2244.500,-1443.240,258.780
674,48013.399000,96.428,37.439,-143.320,348.968,-246.637,-329.313,2086.500,-1842.240,283.780
675,48013.416000,50.417,20.237,-139.367,364.367,-260.345,-307.912,1964.500,-1909.240,324.780
676,48013.436000,49.438,-1.012,-135.413,377.501,-281.795,-264.803,1921.500,-1836.240,352.780
677,48013.468000,64.122,-22.261,-122.564,390.661,-306.148,-221.691,1830.500,-1844.240,426.780
678,48013.481000,32.795,-39.462,-118.610,400.068,-315.937,-195.266,1676.500,-2088.240,452.780
679,48013.487000,-4.405,-51.605,-110.703,397.562,-337.244,-152.865,1589.500,-2080.240,487.780
680,48013.510000,-22.027,-67.794,-101.807,403.168,-347.959,-132.278,1529.500,-1779.240,541.780
681,48013.527000,-20.069,-77.913,-102.795,402.530,-357.674,-90.909,1455.500,-1490.240,593.780
682,48013.550000,-23.006,-83.984,-100.819,399.337,-363.470,-73.125,1359.500,-1308.240,626.780
683,48013.572000,-37.690,-88.032,-97.853,395.876,-374.120,-37.611,1284.500,-1052.240,679.780
684,48013.595000,-46.501,-98.150,-89.946,394.538,-387.682,-10.007,1227.500,-696.240,760.780
685,48013.612000,-44.543,-105.233,-85.004,384.581,-391.474,1.987,1194.500,-511.240,813.780
686,48013.640000,-43.564,-105.233,-79.073,374.651,-400.104,14.971,1125.500,-190.240,917.780
687,48013.660000,-37.690,-105.233,-72.154,359.915,-406.749,22.131,1046.500,57.760,1052.780
688,48013.697000,-35.732,-104.221,-70.178,344.246,-422.094,31.286,964.500,223.760,1191.780
689,48013.717000,-26.922,-95.115,-64.247,341.338,-430.777,34.301,874.500,276.760,1335.780
690,48013.731000,-26.922,-90.055,-57.328,315.892,-443.129,41.657,767.500,189.760,1476.780
691,48013.737000,-39.648,-82.972,-56.340,288.636,-456.423,41.170,639.500,156.760,1618.780
692,48013.757000,-48.459,-70.830,-59.305,273.017,-465.957,44.411,509.500,207.760,1770.780
693,48013.780000,-56.291,-60.711,-68.201,243.848,-480.198,41.990,428.500,231.760,1887.780
694,48013.800000,-88.597,-57.676,-75.120,218.461,-485.771,42.446,391.500,280.760,1929.780
695,48013.822000,-75.870,-50.593,-63.259,188.363,-494.194,34.128,281.500,424.760,2031.780
696,48013.840000,-65.101,-30.356,-63.259,172.821,-500.820,31.458,98.500,273.760,2093.780
697,48013.866000,-109.155,-12.142,-84.015,137.779,-507.265,25.194,-31.500,166.760,2112.780
698,48013.887000,-140.482,-5.059,-95.876,114.417,-510.916,20.689,-123.500,474.760,2151.780
699,48013.907000,-136.566,9.107,-93.900,79.548,-517.351,4.578,-278.500,885.760,2148.780
700,48013.932000,-150.272,30.356,-104.772,47.751,-517.997,-22.423,-411.500,1348.760,2121.780
701,48013.942000,-144.398,35.415,-110.703,20.594,-511.927,-38.686,-564.500,1780.760,2139.780
702,48013.965000,-100.344,46.545,-116.633,-15.993,-506.716,-74.469,-812.500,1840.760,2140.780
703,48013.988000,-100.344,61.723,-166.054,-34.369,-503.631,-87.930,-927.500,1743.760,2105.780
704,48014.5000,-131.671,93.091,-190.764,-75.055,-485.812,-119.718,-1050.500,2008.760,2009.780
705,48014.30000,-124.818,119.399,-188.788,-96.255,-475.919,-142.981,-1144.500,2506.760,1975.780
706,48014.50000,-66.080,115.352,-209.544,-133.072,-449.427,-176.817,-1261.500,2579.760,1939.780
707,48014.87000,-30.837,131.542,-256.988,-169.024,-421.982,-204.762,-1370.500,2241.760,1817.780
708,48014.106000,-24.964,169.992,-270.826,-177.721,-409.313,-217.421,-1453.500,2091.760,1796.780
709,48014.120000,-34.753,188.206,-277.745,-217.891,-375.074,-231.517,-1498.500,2202.760,1790.780
710,48014.133000,-27.901,188.206,-290.595,-238.365,-362.301,-241.999,-1474.500,2301.760,1752.780
711,48014.150000,13.216,202.372,-318.270,-264.915,-325.287,-253.386,-1472.500,2223.760,1705.780
712,48014.172000,23.985,238.798,-344.958,-284.533,-306.722,-259.952,-1442.500,2156.760,1683.780
713,48014.190000,13.216,247.905,-343.969,-311.240,-261.974,-266.423,-1315.500,2481.760,1723.780
714,48014.212000,117.966,223.621,-351.876,-333.884,-227.901,-275.907,-1164.500,2453.760,1752.780
715,48014.235000,110.134,259.036,-352.865,-339.976,-209.470,-272.867,-1122.500,1807.760,1667.780
716,48014.252000,77.828,272.190,-364.726,-357.008,-175.464,-267.683,-1023.500,1405.760,1735.780
717,48014.266000,81.744,246.893,-371.645,-372.745,-160.808,-270.375,-810.500,1424.760,1890.780
718,48014.299000,109.155,238.798,-373.622,-390.757,-124.858,-266.161,-613.500,1255.760,1958.780
719,48014.319000,106.218,260.047,-365.714,-395.791,-111.270,-265.103,-475.500,793.760,1982.780
720,48014.348000,97.407,245.881,-369.668,-398.101,-82.235,-260.174,-374.500,574.760,1994.780
721,48014.357000,105.239,221.597,-379.552,-398.233,-73.532,-257.229,-134.500,151.760,1977.780
722,48014.382000,98.386,227.668,-388.448,-402.291,-54.146,-259.148,61.500,-384.240,1872.780
723,48014.406000,61.185,216.538,-387.459,-403.290,-40.588,-265.053,297.500,-759.240,1745.780
724,48014.422000,66.080,198.324,-391.413,-405.248,-36.698,-266.992,558.500,-661.240,1629.780
725,48014.445000,90.554,191.241,-385.483,-400.246,-26.090,-278.907,808.500,-603.240,1473.780
726,48014.474000,79.786,195.289,-363.737,-392.367,-22.286,-283.973,1052.500,-702.240,1321.780
727,48014.487000,85.660,184.158,-339.027,-381.414,-16.566,-297.955,1300.500,-655.240,1243.780
728,48014.508000,114.050,174.040,-312.340,-382.263,-17.518,-304.831,1464.500,-764.240,1185.780
729,48014.530000,126.776,174.040,-297.514,-368.200,-19.558,-324.766,1510.500,-940.240,1153.780
730,48014.550000,86.639,179.099,-284.664,-347.253,-23.594,-345.805,1591.500,-1367.240,1054.780
731,48014.572000,39.648,163.921,-261.931,-334.359,-25.635,-354.891,1731.500,-1302.240,961.780
732,48014.585000,31.816,143.684,-253.035,-320.261,-29.609,-375.810,1879.500,-770.240,888.780
733,48014.599000,43.564,129.518,-230.301,-302.518,-30.730,-383.013,1981.500,-325.240,821.780
734,48014.617000,48.459,112.316,-211.521,-279.729,-24.143,-403.113,2018.500,-173.240,769.780
735,48014.645000,22.027,95.115,-194.718,-269.781,-21.319,-414.122,2019.500,-89.240,682.780
736,48014.663000,6.363,88.032,-170.996,-246.047,-16.679,-431.283,2038.500,164.760,619.780
737,48014.685000,-16.153,76.901,-141.344,-217.474,-10.151,-446.563,2059.500,468.760,558.780
738,48014.707000,-20.069,52.617,-123.552,-198.860,2.264,-454.782,2043.500,586.760,506.780
739,48014.727000,-16.153,16.190,-119.598,-172.304,11.711,-468.061,1971.500,652.760,354.780
740,48014.749000,-20.069,2.024,-96.865,-157.568,16.420,-474.234,1895.500,600.760,155.780
741,48014.771000,-34.753,1.012,-84.015,-131.151,25.859,-479.635,1786.500,520.760,-34.220
742,48014.792000,-51.396,-14.166,-66.224,-109.513,30.509,-488.883,1650.500,566.760,-210.220
743,48014.815000,-38.669,-36.427,-60.293,-95.895,41.027,-490.121,1471.500,592.760,-385.220
744,48014.838000,-20.069,-50.593,-68.201,-72.325,44.690,-497.433,1320.500,333.760,-607.220
745,48014.860000,-42.585,-54.640,-65.236,-57.744,49.390,-494.743,1196.500,256.760,-836.220
746,48014.887000,-52.375,-52.617,-55.351,-38.237,57.920,-496.083,1060.500,365.760,-1039.220
747,48014.906000,-26.922,-43.510,-55.351,-39.199,61.802,-499.024,989.500,616.760,-1133.220
748,48014.925000,-14.195,-30.356,-48.432,-27.590,74.270,-498.259,884.500,645.760,-1314.220
749,48014.934000,-2.447,-34.403,-32.618,-18.863,79.025,-496.450,743.500,659.760,-1486.220
750,48014.947000,22.027,-31.368,-35.583,-15.118,95.434,-495.551,558.500,532.760,-1653.220
751,48014.975000,30.837,-20.237,-39.537,-3.420,100.165,-495.764,379.500,337.760,-1822.220
752,48014.998000,40.627,-15.178,-53.375,-12.280,104.113,-494.627,226.500,240.760,-1975.220
753,48015.20000,59.228,-5.059,-63.259,-14.264,108.969,-495.582,97.500,179.760,-2153.220
754,48015.41000,86.639,5.059,-75.120,-25.097,110.999,-492.440,-15.500,-20.240,-2348.220
755,48015.60000,116.008,24.285,-85.992,-28.993,111.035,-493.355,-147.500,-178.240,-2541.220
756,48015.80000,127.755,41.486,-102.795,-31.910,105.256,-491.328,-220.500,-432.240,-2642.220
757,48015.97000,142.440,53.628,-129.483,-51.383,98.664,-492.945,-364.500,-502.240,-2839.220
758,48015.122000,163.977,86.008,-156.170,-61.158,91.978,-489.810,-443.500,-652.240,-2981.220
759,48015.145000,162.019,122.435,-159.135,-79.607,76.669,-489.466,-497.500,-641.240,-3055.220
760,48015.163000,185.514,129.518,-177.915,-89.276,64.181,-489.280,-555.500,-575.240,-3121.220
761,48015.195000,217.820,140.648,-208.556,-99.942,55.574,-490.066,-630.500,-755.240,-3162.220
762,48015.207000,212.925,179.099,-220.417,-121.404,39.319,-484.745,-671.500,-821.240,-3045.220
763,48015.235000,181.598,198.324,-227.336,-117.392,28.642,-484.804,-663.500,-281.240,-2882.220
764,48015.247000,214.883,204.395,-224.371,-129.115,21.006,-481.634,-608.500,-4.240,-2753.220
765,48015.264000,302.011,200.348,-252.046,-137.937,15.278,-477.533,-481.500,-273.240,-2720.220
766,48015.281000,276.558,207.431,-272.803,-146.582,-5.927,-475.387,-465.500,-701.240,-2649.220
767,48015.309000,224.673,203.383,-302.456,-151.394,-16.525,-474.305,-345.500,-316.240,-2514.220
768,48015.329000,264.811,194.277,-344.958,-148.422,-24.293,-472.379,-196.500,-200.240,-2439.220
769,48015.350000,287.327,193.265,-373.622,-148.209,-47.510,-472.356,-45.500,-624.240,-2379.220
770,48015.372000,276.558,191.241,-384.494,-141.252,-61.117,-471.478,103.500,-1040.240,-2324.220
771,48015.390000,265.790,184.158,-411.181,-136.154,-87.284,-469.569,252.500,-1356.240,-2301.220
772,48015.415000,256.000,200.348,-422.054,-129.118,-107.661,-469.670,452.500,-1630.240,-2199.220
773,48015.435000,188.451,224.632,-419.089,-111.315,-137.816,-465.027,578.500,-1636.240,-2109.220
774,48015.458000,205.094,217.549,-407.228,-86.699,-166.099,-459.523,857.500,-1399.240,-1866.220
775,48015.467000,205.094,211.478,-389.436,-69.949,-176.891,-460.791,1103.500,-1394.240,-1611.220
776,48015.509000,168.872,205.407,-361.761,-38.475,-206.203,-455.407,1296.500,-1605.240,-1373.220
777,48015.531000,163.977,193.265,-346.934,-29.613,-219.831,-451.610,1509.500,-1683.240,-1151.220
778,48015.550000,159.082,182.134,-334.085,9.499,-245.354,-437.505,1666.500,-1906.240,-993.220
779,48015.560000,93.491,173.028,-332.108,28.200,-268.747,-431.902,1733.500,-2099.240,-905.220
780,48015.574000,75.870,160.885,-307.398,70.073,-292.370,-408.988,1884.500,-1798.240,-805.220
781,48015.591000,92.512,144.696,-289.606,87.681,-305.113,-402.394,1999.500,-1646.240,-684.220
782,48015.613000,79.786,132.553,-276.757,118.738,-326.706,-377.322,2023.500,-1684.240,-654.220
783,48015.634000,60.207,119.399,-265.884,158.542,-347.415,-349.453,2047.500,-1750.240,-590.220
784,48015.647000,44.543,104.221,-245.127,173.013,-355.303,-333.948,2074.500,-1693.240,-513.220
785,48015.675000,25.943,90.055,-230.301,203.914,-371.098,-302.974,2083.500,-1567.240,-423.220
786,48015.692000,19.090,74.877,-212.510,221.278,-379.983,-284.566,2104.500,-1357.240,-316.220
787,48015.720000,20.069,55.652,-196.695,248.210,-388.002,-254.515,2113.500,-1172.240,-185.220
788,48015.737000,10.279,32.379,-183.846,251.841,-394.828,-234.883,2073.500,-1037.240,-72.220
789,48015.755000,-18.111,17.202,-176.927,280.809,-405.764,-207.818,2043.500,-796.240,36.780
790,48015.787000,-31.816,0.000,-158.147,289.149,-409.742,-179.411,2048.500,-457.240,156.780
791,48015.804000,0.489,-19.225,-134.425,293.774,-410.770,-163.741,2024.500,-328.240,226.780
792,48015.826000,23.985,-30.356,-114.656,303.135,-413.786,-138.307,1914.500,-502.240,324.780
793,48015.849000,-12.237,-41.486,-117.622,303.822,-423.490,-116.650,1728.500,-894.240,374.780
794,48015.864000,-35.732,-52.617,-107.737,310.285,-434.221,-89.187,1624.500,-939.240,424.780
795,48015.881000,-23.006,-63.747,-87.969,306.052,-437.108,-69.420,1534.500,-829.240,519.780
796,48015.906000,-17.132,-69.818,-75.120,298.781,-445.780,-40.732,1395.500,-940.240,609.780
797,48015.923000,-33.774,-75.889,-74.131,296.307,-455.471,-6.221,1271.500,-1039.240,686.780
798,48015.938000,-45.522,-75.889,-61.282,294.186,-456.430,3.663,1173.500,-975.240,780.780
799,48015.984000,-46.501,-77.913,-46.456,279.078,-462.128,31.501,1057.500,-837.240,896.780
800,48016.2000,-55.312,-75.889,-38.548,270.100,-467.865,44.465,997.500,-774.240,944.780
801,48016.6000,-59.228,-77.913,-20.757,245.475,-476.363,58.693,891.500,-608.240,1066.780
802,48016.34000,-65.101,-87.020,-14.826,237.562,-480.168,65.728,746.500,-466.240,1199.780
803,48016.51000,-73.912,-86.008,-17.792,214.858,-482.879,78.931,570.500,-385.240,1289.780
804,48016.74000,-91.533,-77.913,-19.768,187.523,-489.401,79.422,416.500,-226.240,1374.780
805,48016.89000,-96.428,-79.937,-16.803,179.792,-496.100,77.598,255.500,13.760,1447.780
806,48016.124000,-101.323,-73.866,-26.687,157.331,-500.732,78.001,80.500,180.760,1468.780
807,48016.139000,-116.008,-65.771,-41.514,140.862,-505.411,71.407,-53.500,315.760,1484.780
808,48016.161000,-119.924,-59.700,-52.386,112.677,-509.014,63.049,-161.500,410.760,1524.780
809,48016.176000,-121.881,-46.545,-57.328,105.049,-511.835,53.343,-239.500,618.760,1535.780
810,48016.198000,-131.671,-22.261,-78.085,77.963,-513.505,37.089,-398.500,807.760,1541.780
811,48016.216000,-137.545,-7.083,-99.830,55.718,-517.157,24.688,-484.500,1079.760,1563.780
812,48016.239000,-116.987,-1.012,-104.772,41.447,-514.097,0.326,-591.500,1273.760,1600.780
813,48016.262000,-104.260,22.261,-110.703,5.710,-513.741,-25.622,-776.500,1254.760,1597.780
814,48016.274000,-114.050,46.545,-134.425,-10.823,-505.841,-35.184,-932.500,1270.760,1626.780
815,48016.298000,-103.281,56.664,-158.147,-34.870,-503.660,-59.372,-1032.500,1244.760,1665.780
816,48016.317000,-76.849,80.949,-170.008,-57.291,-497.643,-66.858,-1156.500,1018.760,1673.780
817,48016.340000,-110.134,113.328,-200.649,-89.306,-489.590,-85.990,-1198.500,960.760,1690.780
818,48016.371000,-127.755,125.470,-215.475,-109.805,-481.657,-92.528,-1170.500,1230.760,1706.780
819,48016.394000,-84.681,142.672,-223.382,-139.933,-469.755,-109.729,-1168.500,1358.760,1702.780
820,48016.415000,-81.744,155.826,-255.012,-167.127,-454.008,-128.955,-1188.500,1203.760,1702.780
821,48016.416000,-108.176,164.933,-280.710,-180.907,-441.305,-130.695,-1127.500,1342.760,1674.780
822,48016.449000,-100.344,185.170,-265.884,-213.999,-420.667,-150.807,-1111.500,1649.760,1639.780
823,48016.467000,-65.101,211.478,-268.849,-226.670,-410.869,-158.470,-1102.500,1750.760,1607.780
824,48016.487000,-49.438,205.407,-303.444,-244.247,-384.574,-173.941,-1075.500,1624.760,1566.780
825,48016.504000,-37.690,226.656,-315.305,-265.872,-371.801,-174.558,-1084.500,1565.760,1549.780
826,48016.525000,-45.522,259.036,-315.305,-291.258,-347.369,-189.889,-1088.500,1661.760,1562.780
827,48016.543000,-53.354,260.047,-340.015,-315.893,-315.215,-196.382,-956.500,2043.760,1650.780
828,48016.565000,24.964,249.929,-362.749,-322.685,-302.567,-206.121,-758.500,1666.760,1685.780
829,48016.587000,17.132,262.071,-365.714,-340.573,-274.353,-204.853,-628.500,1076.760,1794.780
830,48016.596000,-50.417,267.130,-381.529,-348.413,-261.700,-210.636,-349.500,1076.760,2005.780
831,48016.624000,-18.111,243.858,-418.100,-374.086,-232.444,-212.185,-40.500,671.760,2038.780
832,48016.646000,-48.459,260.047,-403.274,-374.228,-220.837,-210.227,217.500,-205.240,2003.780
833,48016.664000,-95.449,258.024,-408.216,-385.116,-203.324,-212.024,505.500,-532.240,1939.780
834,48016.686000,-84.681,254.988,-411.181,-385.112,-188.805,-219.917,828.500,-419.240,1825.780
835,48016.719000,-82.723,244.870,-404.263,-387.062,-180.076,-224.815,960.500,-360.240,1733.780
836,48016.756000,-75.870,224.632,-380.541,-384.026,-168.482,-236.695,1186.500,-149.240,1564.780
837,48016.759000,-55.312,212.490,-363.737,-385.934,-156.847,-245.535,1333.500,208.760,1432.780
838,48016.779000,-15.174,197.312,-348.911,-374.923,-142.412,-267.405,1461.500,523.760,1330.780
839,48016.804000,6.363,189.217,-327.166,-371.930,-129.853,-277.317,1591.500,593.760,1257.780
840,48016.821000,-2.447,185.170,-313.328,-356.036,-114.495,-299.274,1693.500,651.760,1231.780
841,48016.839000,5.384,181.123,-279.722,-352.895,-106.767,-315.090,1789.500,1026.760,1277.780
842,48016.852000,40.627,167.968,-246.116,-342.944,-79.745,-338.925,1859.500,1419.760,1325.780
843,48016.875000,57.270,143.684,-237.220,-325.252,-50.864,-358.961,1857.500,1430.760,1352.780
844,48016.906000,45.522,130.530,-222.394,-315.341,-36.427,-373.920,1849.500,1385.760,1346.780
845,48016.910000,28.880,117.375,-200.649,-293.797,-2.745,-393.045,1838.500,1494.760,1336.780
846,48016.936000,36.711,101.186,-186.811,-280.111,13.584,-401.182,1830.500,1795.760,1343.780
847,48016.954000,55.312,76.901,-170.008,-254.679,48.197,-419.392,1814.500,1962.760,1306.780
848,48016.977000,59.228,56.664,-164.077,-245.982,69.404,-424.493,1773.500,1819.760,1239.780
849,48016.996000,48.459,42.498,-159.135,-221.675,101.114,-432.836,1738.500,1603.760,1127.780
850,48017.24000,40.627,34.403,-146.286,-195.349,129.906,-443.180,1700.500,1539.760,1050.780
851,48017.51000,29.859,22.261,-132.448,-177.922,144.254,-440.552,1637.500,1478.760,989.780
852,48017.80000,30.837,7.083,-138.378,-151.666,173.041,-446.957,1609.500,1421.760,871.780
853,48017.84000,26.922,-6.071,-123.552,-139.068,180.662,-444.235,1593.500,1250.760,805.780
854,48017.113000,6.363,-7.083,-104.772,-111.762,201.702,-450.650,1563.500,1106.760,637.780
855,48017.135000,-7.342,-23.273,-97.853,-101.235,210.302,-441.986,1507.500,1175.760,464.780
856,48017.149000,21.048,-53.628,-91.923,-78.951,230.410,-440.435,1426.500,1154.760,268.780
857,48017.166000,35.732,-63.747,-74.131,-58.553,244.734,-439.828,1342.500,751.760,20.780
858,48017.184000,22.027,-59.700,-68.201,-46.821,247.530,-441.023,1250.500,351.760,-249.220
859,48017.206000,14.195,-59.700,-59.305,-36.128,253.236,-440.235,1168.500,189.760,-529.220
860,48017.229000,29.859,-61.723,-58.317,-26.317,252.180,-441.392,1085.500,70.760,-805.220
861,48017.262000,41.606,-51.605,-59.305,-27.331,254.123,-440.392,1046.500,-5.240,-1028.220
862,48017.282000,25.943,-37.439,-54.363,-17.546,255.970,-441.551,983.500,-49.240,-1119.220
863,48017.291000,36.711,-24.285,-38.548,-18.638,260.812,-437.600,910.500,149.760,-1297.220
864,48017.314000,78.807,-25.296,-35.583,-16.725,261.759,-435.666,818.500,115.760,-1502.220
865,48017.330000,87.618,-13.154,-43.490,-19.634,258.884,-435.611,737.500,-256.240,-1717.220
866,48017.352000,69.996,-1.012,-38.548,-23.547,256.984,-434.555,639.500,-287.240,-1916.220
867,48017.370000,93.491,-2.024,-45.467,-26.500,258.945,-434.505,516.500,-188.240,-2113.220
868,48017.392000,146.356,3.036,-57.328,-42.995,253.297,-439.129,393.500,-549.240,-2356.220
869,48017.417000,164.956,25.296,-61.282,-43.868,245.569,-441.073,270.500,-981.240,-2581.220
870,48017.463000,145.377,51.605,-69.189,-60.281,229.278,-444.702,205.500,-998.240,-2672.220
871,48017.469000,158.103,72.854,-92.911,-75.850,225.554,-447.375,111.500,-788.240,-2819.220
872,48017.469000,213.904,89.043,-104.772,-93.172,205.404,-452.952,59.500,-819.240,-2935.220
873,48017.491000,252.084,112.316,-124.541,-112.458,178.497,-454.548,-27.500,-1189.240,-3051.220
874,48017.513000,241.315,129.518,-157.158,-121.106,168.907,-458.322,-153.500,-1343.240,-3091.220
875,48017.531000,233.484,154.814,-189.776,-134.451,136.142,-461.001,-181.500,-1093.240,-3017.220
876,48017.554000,265.790,174.040,-205.591,-139.237,124.578,-460.902,-112.500,-1066.240,-2913.220
877,48017.576000,296.138,176.063,-217.452,-154.459,88.932,-466.498,-136.500,-1449.240,-2900.220
878,48017.600000,305.927,176.063,-248.093,-159.210,73.498,-466.396,-193.500,-2031.240,-2906.220
879,48017.618000,299.075,189.217,-285.652,-168.505,18.444,-465.183,-197.500,-2328.240,-2896.220
880,48017.640000,262.853,195.289,-321.236,-169.885,-38.612,-468.045,-230.500,-2765.240,-2846.220
881,48017.657000,250.126,207.431,-342.981,-166.795,-66.699,-462.160,-238.500,-3060.240,-2764.220
882,48017.680000,251.105,207.431,-351.876,-160.534,-137.388,-447.421,-283.500,-3630.240,-2675.220
883,48017.697000,177.683,203.383,-371.645,-161.408,-173.185,-434.566,-342.500,-3909.240,-2599.220
884,48017.715000,89.576,209.455,-387.459,-150.499,-238.125,-409.087,-280.500,-3660.240,-2480.220
885,48017.743000,58.249,219.573,-393.390,-137.815,-264.376,-393.529,-191.500,-3273.240,-2394.220
886,48017.765000,23.006,224.632,-383.506,-122.199,-312.916,-366.184,-62.500,-2880.240,-2331.220
887,48017.788000,-15.174,231.715,-371.645,-97.806,-347.019,-344.918,110.500,-2358.240,-2217.220
888,48017.802000,-35.732,238.798,-379.552,-76.326,-364.639,-333.464,252.500,-2048.240,-2132.220
889,48017.825000,-26.922,228.680,-367.691,-49.088,-383.288,-315.219,459.500,-1582.240,-1986.220
890,48017.846000,-37.690,217.549,-352.865,-31.490,-393.128,-309.612,619.500,-1211.240,-1845.220
891,48017.862000,-30.837,197.312,-316.293,-9.034,-404.950,-301.136,804.500,-880.240,-1686.220
892,48017.885000,-38.669,182.134,-300.479,14.364,-405.168,-296.627,961.500,-684.240,-1557.220
893,48017.912000,-42.585,167.968,-289.606,42.689,-411.237,-291.215,1082.500,-500.240,-1462.220
894,48017.925000,-34.753,152.791,-275.768,62.182,-414.323,-285.649,1200.500,-306.240,-1344.220
895,48017.943000,-33.774,140.648,-260.942,96.387,-417.540,-282.313,1275.500,-223.240,-1236.220
896,48017.965000,-29.859,124.459,-242.162,129.446,-412.047,-274.044,1321.500,-169.240,-1138.220
897,48017.987000,-25.943,105.233,-231.290,138.280,-416.965,-273.210,1340.500,-173.240,-1098.220
898,48018.10000,-30.837,87.020,-230.301,166.404,-412.398,-261.900,1366.500,-216.240,-1017.220
899,48018.32000,-47.480,78.925,-225.359,184.944,-414.506,-258.287,1370.500,-175.240,-936.220
900,48018.52000,-45.522,68.806,-217.452,212.063,-405.091,-247.949,1389.500,26.760,-819.220
901,48018.86000,-26.922,55.652,-212.510,217.864,-405.149,-244.114,1419.500,131.760,-707.220
902,48018.101000,-21.048,39.462,-207.568,247.911,-400.601,-230.869,1417.500,26.760,-628.220
903,48018.121000,-30.837,27.320,-201.637,268.172,-394.029,-218.437,1402.500,-105.240,-531.220
904,48018.137000,-36.711,13.154,-198.672,272.962,-397.951,-210.641,1389.500,-151.240,-408.220
905,48018.159000,-42.585,3.036,-186.811,293.110,-390.417,-192.302,1385.500,-156.240,-294.220
906,48018.174000,-49.438,-5.059,-181.869,307.729,-399.265,-184.675,1381.500,-135.240,-243.220
907,48018.195000,-45.522,-16.190,-172.973,317.184,-393.565,-169.097,1385.500,-104.240,-136.220
908,48018.217000,-44.543,-26.308,-169.019,320.034,-399.404,-161.265,1362.500,-138.240,-17.220
909,48018.224000,-49.438,-36.427,-164.077,325.516,-398.511,-139.705,1332.500,-215.240,86.780
910,48018.256000,-56.291,-45.534,-153.205,334.055,-403.446,-122.130,1297.500,-260.240,180.780
911,48018.279000,-64.122,-53.628,-143.320,332.886,-401.512,-112.268,1267.500,-199.240,281.780
912,48018.296000,-55.312,-60.711,-133.436,334.655,-409.284,-97.523,1212.500,-124.240,372.780
913,48018.329000,-49.438,-67.794,-127.506,333.468,-409.286,-85.688,1125.500,-178.240,478.780
914,48018.347000,-56.291,-77.913,-122.564,333.289,-418.008,-70.908,1076.500,-216.240,563.780
915,48018.366000,-57.270,-84.996,-107.737,325.314,-416.977,-62.893,986.500,-222.240,607.780
916,48018.384000,-56.291,-87.020,-93.900,323.291,-432.449,-51.025,880.500,-216.240,687.780
917,48018.404000,-62.164,-87.020,-88.958,319.265,-431.452,-45.049,762.500,-173.240,755.780
918,48018.426000,-57.270,-82.972,-79.073,305.430,-441.014,-31.995,654.500,18.760,860.780
919,48018.440000,-63.143,-79.937,-77.097,293.846,-450.578,-35.716,538.500,241.760,970.780
920,48018.464000,-70.975,-71.842,-68.201,279.230,-451.409,-38.410,408.500,586.760,1089.780
921,48018.486000,-68.038,-61.723,-59.305,266.876,-462.887,-52.945,211.500,1021.760,1225.780
922,48018.504000,-55.312,-53.628,-67.212,248.387,-456.905,-61.485,9.500,1329.760,1352.780
923,48018.526000,-37.690,-54.640,-85.004,226.360,-469.256,-81.754,-54.500,1298.760,1390.780
924,48018.544000,-32.795,-64.759,-88.958,219.684,-471.120,-90.494,-192.500,1025.760,1458.780
925,48018.553000,-49.438,-54.640,-84.015,194.634,-475.706,-109.735,-357.500,833.760,1513.780
926,48018.584000,-67.059,-42.498,-96.865,164.534,-474.449,-122.986,-515.500,796.760,1574.780
927,48018.605000,-67.059,-32.379,-117.622,140.333,-480.020,-134.365,-642.500,758.760,1648.780
928,48018.643000,-70.975,-12.142,-122.564,108.320,-481.646,-148.563,-764.500,842.760,1709.780
929,48018.671000,-60.207,7.083,-124.541,101.677,-477.701,-162.233,-930.500,949.760,1774.780
930,48018.674000,-44.543,26.308,-153.205,55.972,-472.427,-180.135,-1077.500,803.760,1778.780
931,48018.689000,-51.396,45.534,-196.695,39.399,-473.240,-182.794,-1135.500,637.760,1768.780
932,48018.710000,-85.660,63.747,-197.683,2.500,-466.111,-201.839,-1147.500,751.760,1791.780
933,48018.727000,-65.101,88.032,-176.927,-33.587,-450.288,-215.985,-1222.500,1125.760,1853.780
934,48018.753000,-21.048,108.269,-211.521,-56.008,-444.272,-223.471,-1353.500,991.760,1868.780
935,48018.774000,-35.732,124.459,-267.861,-96.120,-431.324,-229.668,-1375.500,753.760,1815.780
936,48018.794000,-59.228,142.672,-282.687,-107.734,-424.434,-240.300,-1338.500,1052.760,1842.780
937,48018.814000,-45.522,169.992,-269.838,-147.902,-397.939,-250.449,-1304.500,1484.760,1874.780
938,48018.835000,8.321,187.194,-294.548,-164.521,-391.979,-254.100,-1251.500,1323.760,1895.780
939,48018.854000,-1.468,193.265,-346.934,-205.684,-367.412,-262.260,-1168.500,1328.760,1873.780
940,48018.875000,-21.048,211.478,-340.015,14.425,-335.540,-280.959,-1065.500,1729.760,1961.780
941,48018.894000,20.069,214.514,-341.992,-248.837,-316.695,-282.230,-1019.500,1823.760,1990.780
942,48018.906000,64.122,212.490,-361.761,-273.481,-283.574,-288.724,-932.500,1614.760,1991.780
943,48018.931000,52.375,220.585,-385.483,-284.360,-268.964,-289.533,-812.500,1383.760,1985.780
944,48018.959000,24.964,230.704,-383.506,-307.021,-236.827,-297.045,-662.500,1649.760,2059.780
945,48018.976000,60.207,230.704,-382.517,-320.890,-212.515,-299.781,-482.500,1659.760,2125.780
946,48018.999000,113.071,226.656,-396.355,-334.821,-185.302,-300.551,-365.500,1094.760,2117.780
947,48019.19000,86.639,235.763,-409.205,-339.856,-169.779,-300.480,-195.500,844.760,2136.780
948,48019.46000,49.438,236.775,-407.228,-348.870,-135.834,-306.267,49.500,920.760,2214.780
949,48019.65000,70.975,227.668,-390.425,-356.921,-109.642,-307.140,245.500,583.760,2219.780
950,48019.94000,65.101,213.502,-405.251,-361.833,-97.983,-311.989,314.500,298.760,2196.780
951,48019.106000,23.985,216.538,-387.459,-361.882,-75.724,-320.874,489.500,66.760,2168.780
952,48019.123000,47.480,201.360,-359.784,-361.072,-59.288,-319.923,744.500,315.760,2188.780
953,48019.146000,68.038,184.158,-342.981,-350.193,-40.022,-336.874,967.500,346.760,2174.780
954,48019.169000,40.627,180.111,-336.062,-344.412,-26.529,-338.961,1071.500,172.760,2118.780
955,48019.186000,43.564,158.862,-304.432,-333.620,-3.396,-352.961,1193.500,355.760,2068.780
956,48019.209000,74.891,132.553,-271.815,-319.875,19.712,-367.999,1305.500,463.760,1992.780
957,48019.221000,64.122,126.482,-260.942,-309.036,28.329,-377.060,1329.500,359.760,1824.780
958,48019.249000,53.354,113.328,-241.174,-291.333,48.500,-393.148,1387.500,408.760,1635.780
959,48019.266000,55.312,83.984,-228.324,-283.490,58.109,-399.205,1411.500,501.760,1552.780
960,48019.289000,69.996,67.794,-219.429,-265.892,80.210,-410.371,1433.500,714.760,1371.780
961,48019.306000,79.786,69.818,-201.637,-254.134,87.847,-415.511,1461.500,738.760,1230.780
962,48019.334000,68.038,59.700,-188.788,-230.620,105.058,-426.776,1476.500,660.760,1123.780
963,48019.366000,61.185,41.486,-169.019,-208.171,122.272,-433.100,1504.500,643.760,1015.780
964,48019.395000,59.228,36.427,-154.193,-190.509,129.858,-440.312,1505.500,615.760,900.780
965,48019.398000,47.480,26.308,-151.228,-171.003,144.195,-444.612,1498.500,532.760,790.780
966,48019.416000,25.943,6.071,-137.390,-155.297,149.863,-450.803,1489.500,567.760,659.780
967,48019.441000,31.816,-17.202,-115.645,-134.829,160.319,-452.162,1444.500,607.760,482.780
968,48019.468000,36.711,-29.344,-114.656,-126.968,166.057,-457.230,1417.500,504.760,379.780
969,48019.476000,21.048,-34.403,-104.772,-107.347,169.753,-462.504,1368.500,262.760,157.780
970,48019.499000,10.279,-45.534,-93.900,-93.736,175.431,-460.783,1304.500,167.760,-65.220
971,48019.516000,20.069,-57.676,-85.992,-76.081,178.177,-465.036,1213.500,161.760,-284.220
972,48019.533000,32.795,-64.759,-80.062,-60.399,177.068,-466.297,1129.500,-4.240,-506.220
973,48019.545000,14.195,-65.771,-76.108,-49.566,176.974,-470.426,1046.500,-142.240,-745.220
974,48019.564000,13.216,-63.747,-64.247,-40.743,176.895,-471.566,943.500,-22.240,-973.220
975,48019.596000,35.732,-59.700,-57.328,-42.674,177.882,-473.502,831.500,28.760,-1189.220
976,48019.610000,47.480,-51.605,-62.270,-36.812,178.797,-473.607,778.500,1.760,-1383.220
977,48019.637000,47.480,-32.379,-66.224,-33.885,179.737,-473.660,683.500,10.760,-1463.220
978,48019.675000,55.312,-24.285,-59.305,-27.167,184.507,-468.862,609.500,157.760,-1588.220
979,48019.696000,78.807,-29.344,-56.340,-33.091,188.429,-467.777,526.500,245.760,-1725.220
980,48019.698000,95.449,-13.154,-64.247,-37.948,188.476,-469.661,442.500,161.760,-1868.220
981,48019.719000,93.491,8.095,-69.189,-37.076,196.204,-467.716,409.500,207.760,-1959.220
982,48019.746000,102.302,12.142,-75.120,-42.099,199.145,-461.724,364.500,420.760,-2009.220
983,48019.769000,145.377,2.024,-78.085,-50.993,205.027,-459.605,270.500,404.760,-2120.220
984,48019.789000,184.535,28.332,-85.992,-50.984,202.124,-458.617,171.500,40.760,-2245.220
985,48019.817000,178.662,61.723,-97.853,-61.764,202.221,-457.442,151.500,-126.240,-2293.220
986,48019.821000,162.019,64.759,-109.714,-76.389,200.422,-459.150,125.500,-122.240,-2386.220
987,48019.845000,198.241,67.794,-113.668,-89.152,197.631,-454.983,92.500,-21.240,-2505.220
988,48019.868000,241.315,96.126,-132.448,-104.632,186.169,-458.633,55.500,-389.240,-2627.220
989,48019.872000,233.484,121.423,-143.320,-105.496,175.537,-459.590,6.500,-731.240,-2741.220
990,48019.900000,217.820,123.447,-160.124,-124.879,159.271,-461.197,-44.500,-685.240,-2830.220
991,48019.923000,235.442,140.648,-176.927,-135.537,149.696,-461.982,-51.500,-580.240,-2921.220
992,48019.950000,259.916,165.945,-202.625,-147.066,130.456,-463.724,26.500,-569.240,-2969.220
993,48019.982000,252.084,183.146,-214.486,-147.936,111.113,-459.748,110.500,-277.240,-2933.220
994,48020.15000,242.294,196.300,-222.394,-158.620,106.376,-461.523,174.500,-28.240,-2878.220
995,48020.24000,273.621,203.383,-233.266,-155.640,101.512,-461.570,343.500,287.760,-2723.220
996,48020.30000,312.780,207.431,-237.220,-158.505,95.736,-462.497,438.500,61.760,-2547.220
997,48020.48000,305.927,205.407,-248.093,-160.277,81.245,-465.402,461.500,-358.240,-2395.220
998,48020.77000,288.306,207.431,-256.988,-162.066,70.626,-469.296,513.500,-676.240,-2275.220
999,48020.105000,279.495,208.443,-256.000,-159.869,44.488,-469.304,592.500,-1063.240,-2218.220
1000,48020.120000,276.558,201.360,-264.896,-146.912,29.867,-475.423,620.500,-1553.240,-2236.220
