Sample, Time, ACCX, ACCY, ACCZ, MAGX, MAGY, MAGZ, GYRX, GYRY, GYRZ
0,47768.262000,-62.164,-10.119,-236.232,66.129,-408.549,-290.648,12.500,9.760,2.780
1,47768.289000,-67.059,-11.130,-239.197,67.186,-409.521,-294.603,10.500,-15.240,3.780
2,47768.307000,-68.038,-11.130,-238.208,68.095,-409.534,-290.682,11.500,-0.240,5.780
3,47768.324000,-68.038,-11.130,-237.220,71.126,-412.459,-294.670,18.500,20.760,4.780
4,47768.357000,-65.101,-11.130,-239.197,71.065,-409.559,-292.703,19.500,23.760,2.780
5,47768.389000,-63.143,-12.142,-239.197,73.110,-413.443,-295.688,17.500,5.760,1.780
6,47768.408000,-65.101,-11.130,-236.232,70.086,-407.614,-293.672,17.500,-7.240,3.780
7,47768.414000,-67.059,-12.142,-240.185,68.182,-409.529,-295.605,16.500,-0.240,1.780
8,47768.434000,-65.101,-12.142,-238.208,76.928,-410.581,-291.821,20.500,5.760,-2.220
9,47768.454000,-68.038,-13.154,-236.232,75.949,-410.572,-291.804,20.500,12.760,-3.220
10,47768.477000,-66.080,-14.166,-239.197,71.039,-408.593,-291.719,20.500,39.760,-4.220
11,47768.496000,-61.185,-15.178,-238.208,69.143,-409.539,-294.638,18.500,25.760,-3.220
12,47768.517000,-64.122,-15.178,-237.220,69.177,-409.537,-296.608,17.500,-8.240,-7.220
13,47768.537000,-67.059,-14.166,-235.243,73.048,-408.607,-294.708,19.500,1.760,-8.220
14,47768.554000,-64.122,-14.166,-235.243,71.065,-407.623,-293.690,14.500,3.760,-9.220
15,47768.582000,-64.122,-12.142,-236.232,72.104,-410.532,-295.674,12.500,-9.240,-14.220
16,47768.596000,-65.101,-13.154,-237.220,75.992,-409.602,-294.759,14.500,6.760,-13.220
17,47768.613000,-64.122,-13.154,-237.220,70.121,-407.612,-295.642,12.500,9.760,-15.220
18,47768.641000,-61.185,-13.154,-235.243,69.125,-407.604,-294.640,8.500,2.760,-15.220
19,47768.658000,-63.143,-14.166,-236.232,74.995,-405.722,-295.730,7.500,-0.240,-11.220
20,47768.681000,-62.164,-15.178,-236.232,77.958,-408.651,-295.779,8.500,10.760,-9.220
21,47768.698000,-62.164,-15.178,-234.255,70.061,-410.519,-290.715,5.500,2.760,-8.220
22,47768.715000,-64.122,-15.178,-234.255,78.971,-410.594,-296.780,2.500,3.760,-6.220
23,47768.741000,-64.122,-14.166,-235.243,73.109,-409.572,-297.661,2.500,16.760,-4.220
24,47768.761000,-63.143,-14.166,-232.278,72.121,-406.660,-298.632,-0.500,13.760,-6.220
25,47768.783000,-61.185,-15.178,-233.266,69.064,-404.704,-292.673,-8.500,-3.240,-5.220
26,47768.806000,-63.143,-15.178,-235.243,69.177,-407.602,-297.594,-13.500,-3.240,-5.220
27,47768.831000,-64.122,-15.178,-235.243,76.970,-407.675,-295.763,-15.500,4.760,-7.220
28,47768.848000,-65.101,-13.154,-236.232,77.948,-405.748,-296.767,-21.500,0.760,-12.220
29,47768.890000,-64.122,-12.142,-238.208,71.082,-407.622,-294.675,-22.500,2.760,-17.220
30,47768.908000,-63.143,-12.142,-237.220,70.095,-406.646,-294.658,-19.500,1.760,-17.220
31,47768.922000,-64.122,-15.178,-240.185,72.069,-406.663,-295.678,-16.500,1.760,-13.220
32,47768.931000,-64.122,-13.154,-241.174,75.957,-405.732,-294.763,-16.500,-2.240,-13.220
33,47768.953000,-64.122,-12.142,-238.208,73.099,-406.669,-298.649,-17.500,-9.240,-17.220
34,47768.973000,-66.080,-11.130,-240.185,80.901,-407.709,-296.817,-16.500,-1.240,-20.220
35,47768.991000,-63.143,-14.166,-239.197,74.987,-406.690,-294.745,-17.500,5.760,-21.220
36,47769.13000,-62.164,-12.142,-241.174,70.146,-406.643,-297.613,-15.500,1.760,-24.220
37,47769.36000,-65.101,-13.154,-239.197,72.121,-408.596,-297.645,-10.500,-1.240,-22.220
38,47769.56000,-62.164,-13.154,-240.185,74.052,-405.711,-297.683,-6.500,9.760,-19.220
39,47769.73000,-61.185,-13.154,-238.208,79.923,-405.765,-297.787,-6.500,10.760,-16.220
40,47769.96000,-61.185,-11.130,-236.232,70.103,-405.678,-295.644,-7.500,2.760,-14.220
41,47769.118000,-60.207,-12.142,-237.220,70.146,-406.643,-297.613,-9.500,-4.240,-13.220
42,47769.136000,-61.185,-14.166,-237.220,73.073,-405.702,-297.665,-5.500,19.760,-8.220
43,47769.161000,-62.164,-13.154,-235.243,70.128,-402.772,-298.601,-3.500,27.760,-4.220
44,47769.173000,-58.249,-15.178,-237.220,75.082,-407.653,-299.668,-7.500,18.760,-5.220
45,47769.187000,-62.164,-13.154,-236.232,74.060,-404.743,-298.668,-16.500,-6.240,-7.220
46,47769.206000,-63.143,-12.142,-237.220,73.125,-407.635,-299.633,-15.500,3.760,-7.220
47,47769.233000,-60.207,-12.142,-238.208,72.033,-400.857,-296.668,-14.500,16.760,-6.220
48,47769.247000,-58.249,-12.142,-239.197,71.168,-405.682,-300.585,-12.500,20.760,-5.220
49,47769.289000,-58.249,-11.130,-238.208,77.992,-408.649,-297.749,-11.500,2.760,-3.220
50,47769.303000,-60.207,-11.130,-238.208,78.996,-407.689,-299.737,-11.500,4.760,4.780
51,47769.317000,-60.207,-13.154,-238.208,79.983,-406.729,-300.740,-9.500,16.760,7.780
52,47769.339000,-58.249,-12.142,-239.197,71.238,-407.613,-303.537,-12.500,21.760,5.780
53,47769.362000,-59.228,-11.130,-240.185,81.906,-406.749,-298.805,-14.500,19.760,4.780
54,47769.386000,-59.228,-12.142,-240.185,72.155,-406.658,-300.601,-14.500,13.760,1.780
55,47769.408000,-60.207,-12.142,-240.185,70.189,-401.801,-302.541,-10.500,15.760,7.780
56,47769.423000,-61.185,-13.154,-238.208,74.156,-407.641,-302.605,-8.500,17.760,14.780
57,47769.446000,-61.185,-12.142,-238.208,76.043,-403.791,-300.674,-13.500,9.760,16.780
58,47769.468000,-61.185,-9.107,-238.208,75.030,-403.784,-298.687,-14.500,3.760,14.780
59,47769.491000,-63.143,-10.119,-238.208,66.249,-402.735,-300.501,-15.500,4.760,12.780
60,47769.509000,-61.185,-11.130,-240.185,65.253,-402.727,-299.499,-10.500,11.760,11.780
61,47769.538000,-60.207,-10.119,-240.185,69.210,-401.792,-302.524,-11.500,15.760,9.780
62,47769.556000,-61.185,-10.119,-241.174,72.120,-404.724,-299.619,-8.500,2.760,9.780
63,47769.573000,-61.185,-11.130,-240.185,78.043,-402.839,-303.663,-8.500,3.760,12.780
64,47769.591000,-62.164,-8.095,-241.174,73.133,-402.795,-302.592,-8.500,8.760,12.780
65,47769.613000,-64.122,-9.107,-240.185,76.086,-404.757,-302.642,-2.500,13.760,9.780
66,47769.626000,-60.207,-11.130,-241.174,67.201,-399.842,-300.522,-3.500,15.760,7.780
67,47769.648000,-58.249,-9.107,-241.174,70.258,-403.733,-305.494,-3.500,3.760,5.780
68,47769.686000,-59.228,-8.095,-240.185,73.124,-403.764,-301.606,0.500,-13.240,7.780
69,47769.699000,-60.207,-10.119,-243.151,67.288,-403.708,-303.472,2.500,-15.240,7.780
70,47769.718000,-61.185,-9.107,-241.174,71.202,-403.744,-303.541,9.500,2.760,6.780
71,47769.722000,-60.207,-9.107,-239.197,70.223,-401.799,-304.511,15.500,14.760,10.780
72,47769.754000,-58.249,-10.119,-240.185,71.203,-405.680,-302.555,14.500,7.760,8.780
73,47769.772000,-59.228,-9.107,-239.197,67.305,-403.707,-304.457,13.500,-4.240,8.780
74,47769.794000,-62.164,-11.130,-240.185,65.297,-403.692,-301.468,15.500,-2.240,6.780
75,47769.817000,-62.164,-11.130,-240.185,72.102,-402.789,-299.621,15.500,-3.240,5.780
76,47769.848000,-61.185,-10.119,-241.174,68.301,-403.715,-305.459,17.500,-8.240,4.780
77,47769.863000,-59.228,-9.107,-238.208,68.206,-404.688,-299.549,17.500,-12.240,6.780
78,47769.865000,-62.164,-11.130,-237.220,66.292,-403.700,-302.470,20.500,-2.240,6.780
79,47769.897000,-60.207,-9.107,-238.208,72.154,-402.786,-302.575,19.500,14.760,8.780
80,47769.909000,-59.228,-9.107,-237.220,68.214,-399.849,-302.509,18.500,9.760,6.780
81,47769.932000,-60.207,-11.130,-236.232,69.192,-399.857,-302.526,16.500,-3.240,4.780
82,47769.959000,-61.185,-11.130,-235.243,72.155,-404.722,-301.588,8.500,-0.240,5.780
83,47769.982000,-61.185,-10.119,-236.232,71.158,-400.843,-302.559,7.500,4.760,2.780
84,47770.14000,-61.185,-13.154,-236.232,68.275,-402.749,-304.475,6.500,-1.240,-1.220
85,47770.44000,-62.164,-12.142,-237.220,68.206,-404.688,-299.549,1.500,-7.240,-1.220
86,47770.44000,-59.228,-11.130,-237.220,75.143,-406.682,-303.608,0.500,-4.240,106.780
87,47770.66000,-3.426,-118.387,-199.660,63.264,-414.326,-291.575,35.500,-1850.240,374.780
88,47770.83000,-202.157,-35.415,-241.174,58.372,-414.281,-291.489,-344.500,-526.240,-126.220
89,47770.101000,-130.692,-44.522,-245.127,55.454,-414.254,-292.421,24.500,394.760,-33.220
90,47770.123000,-114.050,-11.130,-261.931,62.387,-402.696,-303.387,314.500,860.760,-134.220
91,47770.143000,48.459,26.308,-215.475,67.296,-398.868,-306.431,94.500,454.760,130.780
92,47770.161000,-50.417,-19.225,-244.139,59.451,-400.734,-304.321,-111.500,-148.240,-32.220
93,47770.178000,-73.912,4.047,-257.977,66.335,-402.730,-305.425,-56.500,-109.240,-14.220
94,47770.197000,-61.185,-9.107,-260.942,62.396,-403.664,-303.386,-37.500,-107.240,-5.220
95,47770.223000,-71.954,-3.036,-263.907,58.464,-401.693,-303.318,-13.500,-44.240,0.780
96,47770.246000,-67.059,-4.047,-256.988,61.373,-398.818,-303.373,25.500,56.760,-0.220
97,47770.263000,-62.164,-2.024,-250.069,61.477,-402.684,-307.308,34.500,49.760,-13.220
98,47770.283000,-56.291,-5.059,-245.127,67.252,-397.903,-304.463,42.500,18.760,-14.220
99,47770.306000,-55.312,-5.059,-243.151,60.455,-401.709,-305.322,39.500,-47.240,-10.220
100,47770.323000,-58.249,-8.095,-239.197,65.322,-402.723,-303.438,37.500,-76.240,-9.220
101,47770.356000,-65.101,-8.095,-238.208,67.270,-401.773,-303.474,38.500,-23.240,-11.220
102,47770.374000,-63.143,-8.095,-235.243,64.326,-402.715,-302.436,40.500,36.760,-8.220
103,47770.393000,-58.249,-11.130,-235.243,71.237,-403.742,-305.511,28.500,26.760,-10.220
104,47770.416000,-56.291,-12.142,-236.232,64.334,-397.875,-305.396,19.500,1.760,-14.220
105,47770.438000,-56.291,-11.130,-236.232,68.293,-404.684,-304.473,8.500,-28.240,-15.220
106,47770.453000,-61.185,-10.119,-233.266,70.292,-401.795,-308.450,10.500,-1.240,-13.220
107,47770.476000,-60.207,-11.130,-235.243,62.370,-404.633,-301.415,11.500,22.760,-9.220
108,47770.493000,-55.312,-11.130,-237.220,65.322,-402.723,-303.438,5.500,0.760,-6.220
109,47770.508000,-56.291,-9.107,-239.197,63.390,-399.800,-306.361,3.500,-10.240,0.780
110,47770.537000,-51.396,-81.960,-232.278,59.375,-407.513,-296.436,42.500,-1207.240,469.780
111,47770.559000,-118.945,-31.368,-230.301,57.316,-417.180,-285.560,-255.500,-910.240,99.780
112,47770.582000,-114.050,-46.545,-246.116,57.301,-424.925,-280.628,-153.500,-654.240,60.780
113,47770.602000,-151.250,-11.130,-261.931,60.199,-415.274,-283.644,-17.500,-29.240,-41.220
114,47770.618000,-77.828,11.130,-244.139,56.406,-411.360,-292.442,174.500,851.760,-129.220
115,47770.639000,6.363,12.142,-225.359,62.360,-397.858,-304.376,153.500,1036.760,2.780
116,47770.662000,-49.438,-5.059,-256.000,61.477,-402.684,-307.308,-45.500,231.760,27.780
117,47770.682000,-55.312,-2.024,-260.942,57.546,-400.713,-307.241,-40.500,-52.240,11.780
118,47770.706000,-69.017,-3.036,-256.988,53.624,-405.518,-304.213,-30.500,-171.240,23.780
119,47770.728000,-85.660,-2.024,-254.023,62.405,-404.631,-303.385,-1.500,-74.240,24.780
120,47770.748000,-69.017,-2.024,-250.069,60.448,-406.549,-302.363,33.500,83.760,9.780
121,47770.766000,-57.270,-2.024,-245.127,55.598,-403.599,-306.219,40.500,92.760,-0.220
122,47770.788000,-54.333,-2.024,-242.162,56.508,-407.483,-300.324,38.500,19.760,-1.220
123,47770.803000,-59.228,-3.036,-241.174,63.400,-404.639,-304.387,28.500,-86.240,3.780
124,47770.820000,-68.038,-3.036,-237.220,58.447,-403.630,-301.347,24.500,-111.240,6.780
125,47770.846000,-69.017,-4.047,-234.255,54.568,-405.528,-302.260,31.500,-31.240,2.780
126,47770.848000,-61.185,-5.059,-234.255,57.399,-401.689,-298.377,33.500,36.760,-2.220
127,47770.878000,-54.333,-7.083,-233.266,57.513,-406.522,-302.311,23.500,11.760,-2.220
128,47770.899000,-57.270,-7.083,-232.278,57.495,-404.588,-302.313,7.500,-41.240,-0.220
129,47770.927000,-64.122,-6.071,-234.255,61.348,-403.659,-299.429,-0.500,-38.240,2.780
130,47770.944000,-61.185,-4.047,-235.243,60.422,-405.583,-301.380,-0.500,-21.240,2.780
131,47770.967000,-60.207,-4.047,-235.243,58.499,-403.627,-304.301,-3.500,-7.240,0.780
132,47770.990000,-59.228,-6.071,-238.208,66.327,-405.634,-303.453,-4.500,-10.240,4.780
133,47771.7000,50.417,18.213,-192.741,49.643,-411.293,-297.244,-852.500,168.760,212.780
134,47771.29000,-96.428,-27.320,-224.371,53.454,-415.206,-289.432,-328.500,-733.240,122.780
135,47771.52000,-109.155,-36.427,-230.301,48.484,-416.134,-284.420,-184.500,-331.240,77.780
136,47771.69000,-122.860,-27.320,-247.104,52.433,-418.103,-285.472,-57.500,128.760,-79.220
137,47771.97000,-125.797,1.012,-266.873,44.647,-413.190,-290.263,290.500,797.760,-116.220
138,47771.141000,-10.279,12.142,-231.290,49.667,-404.517,-302.175,314.500,960.760,-57.220
139,47771.143000,-24.964,4.047,-240.185,54.576,-402.624,-304.233,-38.500,245.760,14.780
140,47771.151000,-75.870,0.000,-262.919,46.766,-406.424,-303.106,-63.500,-93.240,1.780
141,47771.171000,-68.038,1.012,-261.931,52.594,-407.447,-300.254,-24.500,-81.240,14.780
142,47771.196000,-77.828,-1.012,-261.931,52.629,-405.510,-303.211,-1.500,-45.240,18.780
143,47771.218000,-73.912,1.012,-254.023,54.524,-402.627,-301.279,35.500,55.760,8.780
144,47771.246000,-65.101,0.000,-251.058,50.706,-405.490,-305.146,50.500,50.760,-8.220
145,47771.261000,-59.228,0.000,-247.104,49.641,-405.486,-300.204,56.500,-6.240,-10.220
146,47771.281000,-59.228,0.000,-244.139,54.586,-407.463,-302.259,60.500,-71.240,-10.220
147,47771.298000,-67.059,-1.012,-240.185,51.634,-409.373,-300.235,60.500,-79.240,-13.220
148,47771.321000,-69.996,-2.024,-235.243,51.642,-406.469,-302.208,66.500,-32.240,-13.220
149,47771.343000,-65.101,-4.047,-233.266,54.577,-406.496,-302.259,61.500,16.760,-18.220
150,47771.363000,-58.249,-7.083,-232.278,51.642,-406.469,-302.208,50.500,-1.240,-21.220
151,47771.390000,-59.228,-7.083,-230.301,50.672,-407.428,-302.189,32.500,-48.240,-28.220
152,47771.408000,-62.164,-5.059,-231.290,53.502,-401.653,-299.293,20.500,-50.240,-32.220
153,47771.427000,-64.122,-5.059,-230.301,58.492,-408.467,-301.342,12.500,-11.240,-33.220
154,47771.442000,-62.164,-7.083,-232.278,59.400,-404.608,-299.394,-6.500,-10.240,-35.220
155,47771.458000,-59.228,-5.059,-232.278,55.504,-406.508,-299.323,-19.500,-29.240,-39.220
156,47771.489000,-59.228,-3.036,-229.313,54.474,-408.437,-295.364,-21.500,-75.240,-41.220
157,47771.526000,-195.304,-203.383,-25.699,46.732,-408.361,-300.150,-1362.500,313.760,177.780
158,47771.532000,-123.839,-66.783,-222.394,39.584,-424.770,-274.408,-717.500,-1383.240,107.780
159,47771.546000,-153.208,-11.130,-222.394,41.534,-429.628,-271.484,-274.500,-514.240,1.780
160,47771.563000,-136.566,-52.617,-242.162,42.503,-426.734,-272.489,-11.500,300.760,-246.220
161,47771.581000,-176.704,1.012,-273.792,53.496,-412.300,-293.374,439.500,1312.760,-322.220
162,47771.603000,17.132,86.008,-231.290,52.542,-405.514,-298.287,185.500,815.760,90.780
163,47771.626000,3.426,-14.166,-231.290,44.672,-408.349,-294.206,-144.500,-226.240,-61.220
164,47771.648000,-89.576,8.095,-267.861,52.535,-410.354,-295.328,-114.500,-194.240,-84.220
165,47771.663000,-70.975,6.071,-271.815,53.487,-411.333,-293.374,-56.500,-183.240,-29.220
166,47771.697000,-88.597,3.036,-273.792,46.637,-409.335,-294.240,-3.500,-56.240,-26.220
167,47771.701000,-81.744,4.047,-266.873,46.629,-410.303,-293.254,56.500,91.760,-37.220
168,47771.728000,-66.080,4.047,-258.965,51.591,-412.279,-296.293,73.500,40.760,-48.220
169,47771.748000,-65.101,2.024,-255.012,50.595,-410.336,-296.278,84.500,-24.240,-57.220
170,47771.766000,-65.101,3.036,-250.069,60.389,-413.328,-295.463,91.500,-104.240,-60.220
171,47771.788000,-70.975,1.012,-248.093,60.364,-414.297,-293.493,104.500,-103.240,-73.220
172,47771.811000,-78.807,1.012,-247.104,64.260,-412.398,-293.564,119.500,-46.240,-75.220
173,47771.819000,-73.912,-1.012,-242.162,62.260,-413.350,-290.574,124.500,-30.240,-76.220
174,47771.848000,-65.101,-6.071,-232.278,60.294,-412.365,-290.540,123.500,-42.240,-79.220
175,47771.869000,-64.122,-5.059,-230.301,64.182,-413.370,-288.639,105.500,-79.240,-94.220
176,47771.902000,-58.249,-4.047,-227.336,62.234,-414.320,-288.603,87.500,-74.240,-100.220
177,47771.921000,-51.396,-4.047,-224.371,71.023,-412.465,-288.761,66.500,-32.240,-105.220
178,47771.943000,-42.585,-11.130,-220.417,71.032,-415.368,-287.773,38.500,26.760,-87.220
179,47771.957000,-20.069,-12.142,-220.417,70.097,-416.325,-289.725,3.500,47.760,-57.220
180,47771.979000,-2.447,-7.083,-215.475,66.087,-411.455,-286.706,-27.500,-52.240,-15.220
181,47771.994000,-0.489,-10.119,-213.498,66.130,-412.421,-288.675,-75.500,-104.240,55.780
182,47772.26000,9.300,-10.119,-218.440,69.040,-415.352,-285.769,-94.500,-133.240,95.780
183,47772.39000,15.174,-8.095,-220.417,64.122,-414.342,-284.699,-119.500,-133.240,179.780
184,47772.62000,10.279,-8.095,-224.371,65.111,-421.125,-281.755,-129.500,-171.240,290.780
185,47772.82000,4.405,-3.036,-224.371,51.368,-418.099,-280.531,-116.500,-136.240,421.780
186,47772.99000,8.321,1.012,-224.371,44.493,-420.942,-277.453,-101.500,-36.240,567.780
187,47772.122000,19.090,5.059,-222.394,36.699,-418.933,-280.271,-94.500,-85.240,678.780
188,47772.142000,4.405,11.130,-216.463,30.751,-421.788,-274.255,-115.500,-225.240,771.780
189,47772.164000,-15.174,16.190,-219.429,23.955,-425.594,-275.115,-142.500,-186.240,871.780
190,47772.168000,-11.258,20.237,-214.486,11.157,-428.387,-268.979,-145.500,-127.240,917.780
191,47772.197000,-14.195,22.261,-213.498,-6.465,-427.259,-268.668,-184.500,-104.240,1003.780
192,47772.223000,-44.543,26.308,-217.452,-21.204,-422.290,-267.429,-231.500,-79.240,1068.780
193,47772.238000,-29.859,32.379,-215.475,-31.958,-423.159,-267.238,-243.500,111.760,1133.780
194,47772.261000,-8.321,44.522,-211.521,-42.714,-420.157,-269.020,-273.500,25.760,1155.780
195,47772.278000,-36.711,49.581,-220.417,-66.328,-417.047,-262.699,-340.500,-178.240,1196.780
196,47772.321000,-63.143,49.581,-228.324,-76.095,-418.893,-262.524,-350.500,-60.240,1249.780
197,47772.334000,-43.564,59.700,-227.336,-96.740,-411.936,-260.198,-337.500,88.760,1296.780
198,47772.354000,-30.837,66.783,-225.359,-116.354,-408.857,-258.870,-359.500,-28.240,1312.780
199,47772.368000,-60.207,73.866,-226.347,-123.317,-403.962,-254.815,-381.500,-70.240,1333.780
200,47772.391000,-64.122,82.972,-226.347,-147.859,-396.969,-253.404,-391.500,105.760,1375.780
201,47772.425000,-28.880,94.103,-222.394,-157.576,-393.004,-259.144,-384.500,235.760,1386.780
202,47772.427000,-21.048,93.091,-219.429,-179.330,-383.142,-250.895,-420.500,12.760,1385.780
203,47772.443000,-43.564,100.174,-220.417,-192.121,-379.159,-248.704,-467.500,-187.240,1410.780
204,47772.466000,-48.459,112.316,-208.556,-214.740,-372.185,-245.359,-467.500,-121.240,1456.780
205,47772.483000,-27.901,123.447,-191.753,-218.768,-367.317,-241.355,-483.500,-72.240,1486.780
206,47772.512000,-21.048,122.435,-193.730,-246.394,-353.530,-234.976,-538.500,-152.240,1497.780
207,47772.532000,-46.501,120.411,-197.683,-265.204,-342.726,-227.765,-589.500,-140.240,1545.780
208,47772.554000,-40.627,126.482,-184.834,-271.146,-338.805,-225.695,-598.500,76.760,1570.780
209,47772.572000,-21.048,137.613,-187.799,-293.888,-324.095,-219.403,-669.500,145.760,1598.780
210,47772.599000,-17.132,143.684,-192.741,-309.729,-309.445,-216.187,-738.500,45.760,1599.780
211,47772.614000,-33.774,153.802,-197.683,-331.545,-294.747,-206.958,-775.500,-4.240,1595.780
212,47772.652000,-12.237,169.992,-187.799,-336.630,-286.970,-199.986,-784.500,-62.240,1623.780
213,47772.671000,-9.300,179.099,-202.625,-353.649,-271.354,-185.921,-848.500,-318.240,1643.780
214,47772.679000,-22.027,188.206,-207.568,-368.711,-257.691,-170.903,-845.500,-534.240,1655.780
215,47772.696000,-36.711,200.348,-197.683,-389.469,-247.837,-163.657,-791.500,-580.240,1709.780
216,47772.717000,-35.732,212.490,-183.846,-402.644,-230.325,-146.708,-762.500,-585.240,1749.780
217,47772.739000,-26.922,223.621,-170.996,-406.760,-217.718,-141.728,-725.500,-690.240,1847.780
218,47772.767000,-21.048,235.763,-169.019,-425.884,-199.189,-120.738,-732.500,-967.240,1931.780
219,47772.777000,-48.459,237.787,-181.869,-431.012,-188.510,-112.784,-736.500,-1213.240,1965.780
220,47772.799000,-78.807,239.810,-188.788,-438.411,-170.089,-91.016,-671.500,-1240.240,1959.780
221,47772.813000,-96.428,243.858,-194.718,-456.454,-145.755,-78.912,-618.500,-1251.240,1901.780
222,47772.827000,-114.050,242.846,-205.591,-461.688,-131.211,-67.023,-549.500,-1202.240,1798.780
223,47772.860000,-119.924,236.775,-215.475,-465.026,-111.849,-54.189,-450.500,-1195.240,1658.780
224,47772.889000,-134.608,232.727,-222.394,-471.981,-105.986,-51.119,-350.500,-1178.240,1472.780
225,47772.904000,-156.145,232.727,-224.371,-479.146,-88.519,-42.153,-296.500,-1114.240,1371.780
226,47772.922000,-174.746,224.632,-219.429,-475.389,-82.756,-36.320,-212.500,-850.240,1136.780
227,47772.939000,-181.598,211.478,-218.440,-479.410,-71.111,-36.262,-123.500,-513.240,876.780
228,47772.962000,-166.914,199.336,-214.486,-480.459,-67.235,-34.279,-70.500,-254.240,575.780
229,47772.984000,-157.124,196.300,-206.579,-482.504,-61.415,-32.281,-57.500,-6.240,312.780
230,47773.7000,-145.377,190.229,-201.637,-482.513,-58.511,-33.269,-95.500,276.760,15.780
231,47773.32000,-123.839,197.312,-206.579,-476.651,-59.533,-32.387,-74.500,466.760,-269.220
232,47773.47000,-76.849,196.300,-200.649,-480.450,-68.202,-34.278,-45.500,307.760,-541.220
233,47773.74000,-57.270,201.360,-193.730,-483.358,-73.014,-33.237,-37.500,152.760,-762.220
234,47773.88000,-75.870,206.419,-190.764,-480.246,-86.581,-36.229,-36.500,34.760,-841.220
235,47773.117000,-89.576,214.514,-190.764,-474.339,-94.376,-34.356,-8.500,171.760,-966.220
236,47773.132000,-81.744,217.549,-188.788,-473.140,-108.891,-39.282,44.500,364.760,-1076.220
237,47773.146000,-74.891,218.561,-190.764,-467.083,-125.388,-41.339,103.500,448.760,-1203.220
238,47773.159000,-73.912,222.609,-191.753,-466.925,-135.058,-45.268,164.500,426.760,-1283.220
239,47773.187000,-69.996,222.609,-195.707,-459.786,-153.494,-52.264,196.500,329.760,-1329.220
240,47773.209000,-75.870,226.656,-202.625,-457.750,-158.347,-54.263,208.500,97.760,-1360.220
241,47773.234000,-96.428,229.692,-208.556,-453.614,-178.696,-56.282,242.500,-94.240,-1418.220
242,47773.254000,-104.260,237.787,-214.486,-440.726,-191.385,-59.448,263.500,-121.240,-1445.220
243,47773.272000,-103.281,233.739,-222.394,-433.621,-209.823,-64.474,320.500,-159.240,-1473.220
244,47773.289000,-115.029,225.644,-223.382,-434.475,-223.358,-64.444,368.500,-309.240,-1522.220
245,47773.312000,-127.755,223.621,-213.498,-419.568,-244.772,-66.651,389.500,-463.240,-1585.220
246,47773.339000,-136.566,221.597,-207.568,-400.624,-268.151,-74.835,411.500,-457.240,-1660.220
247,47773.348000,-132.650,217.549,-207.568,-397.643,-276.887,-72.908,420.500,-331.240,-1751.220
248,47773.371000,-120.902,213.502,-199.660,-379.817,-300.264,-73.196,404.500,-276.240,-1826.220
249,47773.394000,-118.945,209.455,-190.764,-366.955,-313.923,-74.392,362.500,-300.240,-1887.220
250,47773.416000,-125.797,198.324,-176.927,-349.067,-338.265,-77.634,311.500,-302.240,-1955.220
251,47773.438000,-123.839,192.253,-180.880,-334.258,-349.038,-79.852,278.500,-282.240,-1988.220
252,47773.456000,-122.860,187.194,-187.799,-318.353,-374.332,-81.088,234.500,-246.240,-2034.220
253,47773.478000,-127.755,179.099,-180.880,-290.872,-394.902,-75.644,209.500,-197.240,-2071.220
254,47773.487000,-129.713,174.040,-177.915,-276.981,-404.695,-81.785,188.500,-80.240,-2084.220
255,47773.515000,-123.839,171.004,-182.857,-248.418,-423.333,-83.253,176.500,44.760,-2080.220
256,47773.542000,-110.134,162.909,-177.915,-233.610,-428.299,-88.431,179.500,163.760,-2022.220
257,47773.563000,-103.281,148.743,-177.915,-203.116,-445.988,-88.950,153.500,186.760,-1964.220
258,47773.593000,-110.134,133.565,-192.741,-197.148,-452.811,-91.016,138.500,74.760,-1956.220
259,47773.601000,-115.029,120.411,-185.822,-162.847,-462.798,-89.643,133.500,30.760,-1954.220
260,47773.618000,-115.029,104.221,-175.938,-147.077,-469.709,-92.867,98.500,-18.240,-1956.220
261,47773.641000,-116.987,97.138,-184.834,-114.671,-480.644,-94.412,46.500,-39.240,-1949.220
262,47773.667000,-116.987,92.079,-189.776,-87.114,-494.434,-96.852,27.500,-4.240,-1944.220
263,47773.689000,-98.386,80.949,-179.892,-73.511,-491.661,-93.158,26.500,25.760,-1908.220
264,47773.709000,-112.092,64.759,-188.788,-42.111,-501.619,-93.702,-10.500,-83.240,-1910.220
265,47773.723000,-120.902,61.723,-196.695,-27.538,-497.887,-90.027,-22.500,-30.240,-1896.220
266,47773.759000,-109.155,52.617,-187.799,8.772,-505.954,-92.628,-19.500,10.760,-1845.220
267,47773.778000,-109.155,40.474,-196.695,25.337,-506.109,-88.984,-40.500,-53.240,-1809.220
268,47773.807000,-111.113,34.403,-197.683,54.743,-504.437,-93.444,-46.500,-68.240,-1791.220
269,47773.810000,-104.260,26.308,-188.788,84.046,-504.707,-91.008,-51.500,-42.240,-1722.220
270,47773.829000,-101.323,14.166,-194.718,89.899,-500.890,-92.101,-64.500,-67.240,-1678.220
271,47773.851000,-109.155,10.119,-199.660,115.253,-499.190,-88.614,-64.500,-76.240,-1644.220
272,47773.871000,-106.218,-1.012,-196.695,132.821,-494.513,-88.930,-49.500,-34.240,-1571.220
273,47773.896000,-94.470,-8.095,-194.718,154.303,-487.936,-90.302,-59.500,-102.240,-1513.220
274,47773.913000,-107.197,-18.213,-202.625,170.877,-489.059,-86.656,-54.500,-169.240,-1448.220
275,47773.930000,-116.008,-23.273,-199.660,194.263,-480.566,-86.096,-21.500,-56.240,-1387.220
276,47773.953000,-102.302,-26.308,-198.672,198.072,-474.801,-83.216,4.500,-34.240,-1338.220
277,47773.976000,-94.470,-35.415,-199.660,223.503,-470.193,-85.641,11.500,-74.240,-1316.220
278,47773.993000,-105.239,-41.486,-194.718,242.915,-460.701,-82.057,17.500,-91.240,-1266.220
279,47774.12000,-99.365,-47.557,-186.811,259.523,-459.886,-81.368,28.500,16.760,-1193.220
280,47774.48000,-80.765,-56.664,-188.788,275.107,-450.353,-82.639,24.500,-29.240,-1135.220
281,47774.62000,-83.702,-57.676,-186.811,279.938,-447.497,-80.759,2.500,-133.240,-1085.220
282,47774.79000,-92.512,-62.735,-178.903,298.397,-437.027,-79.129,5.500,-31.240,-1008.220
283,47774.99000,-87.618,-70.830,-182.857,309.142,-433.254,-80.308,-1.500,45.760,-939.220
284,47774.122000,-76.849,-71.842,-181.869,318.865,-426.571,-80.488,-11.500,49.760,-872.220
285,47774.145000,-71.954,-77.913,-176.927,328.577,-415.049,-82.642,-20.500,45.760,-802.220
286,47774.154000,-59.228,-83.984,-176.927,338.310,-413.205,-80.847,-36.500,8.760,-769.220
287,47774.185000,-60.207,-89.043,-179.892,350.985,-406.548,-82.064,-61.500,-33.240,-688.220
288,47774.213000,-57.270,-90.055,-175.938,346.992,-401.678,-80.030,-72.500,9.760,-588.220
289,47774.217000,-52.375,-94.103,-176.927,360.673,-397.932,-81.261,-90.500,9.760,-485.220
290,47774.243000,-48.459,-98.150,-181.869,362.637,-393.109,-84.255,-105.500,-25.240,-387.220
291,47774.266000,-49.438,-97.138,-181.869,361.623,-389.231,-84.241,-123.500,-44.240,-288.220
292,47774.286000,-57.270,-100.174,-190.764,367.494,-389.284,-84.345,-112.500,36.760,-185.220
293,47774.301000,-55.312,-104.221,-193.730,366.568,-389.272,-87.282,-92.500,94.760,-92.220
294,47774.343000,-55.312,-104.221,-195.707,370.533,-387.369,-91.292,-82.500,123.760,-50.220
295,47774.366000,-52.375,-101.186,-194.718,364.644,-385.381,-91.190,-70.500,154.760,34.780
296,47774.366000,-53.354,-102.198,-193.730,362.800,-388.261,-96.077,-63.500,168.760,126.780
297,47774.388000,-48.459,-102.198,-194.718,367.764,-394.109,-97.142,-68.500,165.760,218.780
298,47774.408000,-46.501,-97.138,-193.730,361.962,-395.987,-99.991,-77.500,158.760,307.780
299,47774.431000,-44.543,-91.067,-192.741,351.207,-394.921,-100.786,-81.500,231.760,398.780
300,47774.451000,-37.690,-90.055,-188.788,353.347,-399.768,-108.694,-91.500,312.760,503.780
301,47774.469000,-32.795,-88.032,-191.753,339.787,-401.571,-115.343,-106.500,340.760,617.780
302,47774.492000,-21.048,-75.889,-184.834,329.121,-408.243,-117.115,-113.500,415.760,732.780
303,47774.515000,-13.216,-67.794,-188.788,318.531,-410.072,-125.786,-129.500,431.760,789.780
304,47774.532000,-20.069,-66.783,-209.544,316.645,-415.857,-126.730,-180.500,406.760,896.780
305,47774.557000,-20.069,-61.723,-211.521,295.396,-423.389,-138.159,-174.500,455.760,1028.780
306,47774.577000,-24.964,-48.569,-213.498,283.698,-422.312,-140.907,-166.500,550.760,1171.780
307,47774.597000,-24.964,-35.415,-216.463,262.502,-431.777,-154.303,-165.500,616.760,1311.780
308,47774.612000,-29.859,-31.368,-223.382,253.888,-441.365,-160.046,-154.500,590.760,1452.780
309,47774.634000,-26.922,-25.296,-224.371,226.629,-441.108,-167.440,-131.500,505.760,1587.780
310,47774.676000,-44.543,-15.178,-233.266,199.336,-446.660,-169.904,-129.500,283.760,1696.780
311,47774.689000,-59.228,0.000,-239.197,185.779,-458.142,-171.619,-119.500,199.760,1723.780
312,47774.703000,-82.723,10.119,-231.290,160.408,-461.779,-173.135,-98.500,148.760,1774.780
313,47774.720000,-90.554,11.130,-235.243,141.956,-463.538,-179.698,-80.500,383.760,1832.780
314,47774.738000,-61.185,13.154,-243.151,111.753,-464.222,-186.054,-73.500,507.760,1859.780
315,47774.761000,-62.164,29.344,-234.255,99.154,-467.972,-190.749,-80.500,266.760,1855.780
316,47774.778000,-100.344,43.510,-212.510,67.816,-466.720,-189.211,-107.500,168.760,1857.780
317,47774.796000,-88.597,44.522,-207.568,42.462,-464.548,-194.672,-136.500,424.760,1901.780
318,47774.809000,-69.996,41.486,-221.405,19.108,-467.231,-200.162,-171.500,397.760,1888.780
319,47774.840000,-76.849,49.581,-219.429,-12.222,-463.076,-200.597,-189.500,236.760,1880.780
320,47774.856000,-67.059,68.806,-195.707,-27.861,-459.061,-203.279,-205.500,200.760,1908.780
321,47774.886000,-73.912,80.949,-198.672,-58.222,-452.011,-204.719,-281.500,100.760,1948.780
322,47774.906000,-109.155,72.854,-224.371,-68.067,-452.894,-200.605,-325.500,-29.240,1957.780
323,47774.919000,-108.176,83.984,-214.486,-100.420,-443.893,-201.028,-291.500,100.760,1963.780
324,47774.969000,-90.554,99.162,-214.486,-126.867,-436.879,-202.537,-307.500,172.760,2005.780
325,47774.969000,-104.260,99.162,-227.336,-147.513,-427.986,-201.198,-333.500,51.760,1993.780
326,47774.985000,-122.860,107.257,-229.313,-176.047,-419.994,-195.780,-331.500,-0.240,1950.780
327,47775.3000,-129.713,116.364,-241.174,-186.873,-413.124,-195.597,-315.500,-8.240,1919.780
328,47775.21000,-116.987,127.494,-238.208,-216.403,-401.252,-191.150,-297.500,-93.240,1859.780
329,47775.41000,-128.734,139.636,-237.220,-230.174,-393.388,-190.916,-301.500,-143.240,1830.780
330,47775.62000,-146.356,137.613,-244.139,-251.824,-381.585,-189.562,-281.500,-39.240,1770.780
331,47775.84000,-110.134,139.636,-232.278,-259.820,-368.940,-186.482,-230.500,188.760,1696.780
332,47775.107000,-73.912,145.708,-215.475,-280.571,-354.246,-182.194,-230.500,141.760,1635.780
333,47775.131000,-68.038,146.719,-211.521,-302.239,-342.444,-179.856,-270.500,1.760,1602.780
334,47775.151000,-73.912,141.660,-214.486,-309.185,-335.611,-177.772,-273.500,-99.240,1599.780
335,47775.168000,-48.459,156.838,-197.683,-328.015,-319.001,-172.536,-290.500,-234.240,1621.780
336,47775.194000,-41.606,171.004,-194.718,-330.173,-310.284,-165.617,-305.500,-419.240,1675.780
337,47775.211000,-52.375,173.028,-191.753,-358.742,-298.422,-160.203,-296.500,-473.240,1740.780
338,47775.231000,-60.207,173.028,-191.753,-360.979,-286.805,-150.333,-277.500,-510.240,1776.780
339,47775.248000,-63.143,182.134,-196.695,-382.804,-269.204,-142.091,-272.500,-521.240,1838.780
340,47775.271000,-65.101,182.134,-199.660,-398.830,-245.852,-132.975,-251.500,-510.240,1894.780
341,47775.288000,-59.228,194.277,-192.741,-404.832,-239.031,-128.939,-231.500,-534.240,1924.780
342,47775.316000,-87.618,199.336,-201.637,-416.961,-213.781,-119.894,-189.500,-504.240,1954.780
343,47775.333000,-97.407,199.336,-212.510,-428.836,-201.099,-118.714,-149.500,-367.240,1965.780
344,47775.356000,-110.134,200.348,-230.301,-430.123,-176.909,-113.798,-106.500,-287.240,1932.780
345,47775.378000,-123.839,196.300,-249.081,-441.955,-165.193,-114.586,-54.500,-143.240,1866.780
346,47775.401000,-141.461,189.217,-270.826,-449.052,-141.915,-112.519,-27.500,-66.240,1812.780
347,47775.439000,-129.713,190.229,-261.931,-458.107,-118.619,-110.417,22.500,15.760,1671.780
348,47775.439000,-131.671,186.182,-245.127,-462.092,-108.908,-111.343,27.500,-128.240,1451.780
349,47775.461000,-133.629,176.063,-226.347,-465.212,-98.245,-106.378,-2.500,-248.240,1217.780
350,47775.474000,-124.818,177.075,-211.521,-457.447,-89.609,-107.510,-44.500,-298.240,983.780
351,47775.498000,-96.428,175.051,-200.649,-464.472,-79.877,-102.474,-63.500,-370.240,789.780
352,47775.515000,-79.786,171.004,-200.649,-461.598,-75.068,-101.546,-86.500,-462.240,573.780
353,47775.539000,-82.723,167.968,-195.707,-466.569,-72.124,-98.509,-74.500,-398.240,379.780
354,47775.562000,-77.828,156.838,-175.938,-471.436,-73.046,-99.406,-73.500,-256.240,228.780
355,47775.577000,-71.954,151.779,-171.985,-464.666,-66.338,-98.549,-75.500,-193.240,173.780
356,47775.594000,-67.059,153.802,-179.892,-470.597,-67.255,-94.505,-57.500,-53.240,87.780
357,47775.622000,-55.312,152.791,-186.811,-465.661,-70.201,-95.574,-45.500,35.760,12.780
358,47775.648000,-55.312,157.850,-193.730,-469.549,-67.260,-98.462,-37.500,38.760,-80.220
359,47775.666000,-69.996,154.814,-195.707,-473.515,-69.164,-94.451,-50.500,72.760,-189.220
360,47775.682000,-75.870,154.814,-200.649,-469.547,-75.004,-94.515,-80.500,62.760,-340.220
361,47775.703000,-86.639,163.921,-208.556,-471.565,-74.021,-91.527,-98.500,4.760,-498.220
362,47775.721000,-99.365,175.051,-221.405,-468.445,-86.620,-95.505,-102.500,-46.240,-650.220
363,47775.746000,-114.050,184.158,-223.382,-470.313,-96.277,-95.461,-101.500,-55.240,-800.220
364,47775.768000,-133.629,189.217,-223.382,-460.526,-104.109,-91.687,-92.500,-38.240,-880.220
365,47775.789000,-139.503,193.265,-222.394,-460.349,-119.585,-93.641,-72.500,-21.240,-1040.220
366,47775.809000,-134.608,206.419,-223.382,-464.217,-128.258,-91.593,-61.500,-120.240,-1199.220
367,47775.835000,-145.377,211.478,-217.452,-457.207,-147.670,-90.710,-50.500,-191.240,-1362.220
368,47775.852000,-149.293,219.573,-206.579,-448.286,-158.390,-91.840,-32.500,-107.240,-1516.220
369,47775.875000,-135.587,223.621,-194.718,-447.977,-182.570,-96.739,-11.500,8.760,-1658.220
370,47775.894000,-103.281,218.561,-183.846,-437.185,-193.314,-92.980,-7.500,-31.240,-1727.220
371,47775.901000,-89.576,213.502,-181.869,-428.148,-216.610,-94.097,-96.500,-388.240,-1749.220
372,47775.923000,-127.755,224.632,-192.741,-413.394,-245.777,-83.495,-164.500,-594.240,-1779.220
373,47775.946000,-151.250,230.704,-172.973,-416.179,-258.324,-85.400,-256.500,-641.240,-1862.220
374,47775.977000,-148.314,214.514,-166.054,-399.400,-283.633,-80.745,-262.500,-403.240,-1869.220
375,47775.994000,-141.461,208.443,-177.915,-387.603,-295.351,-77.986,-297.500,-279.240,-1952.220
376,47776.17000,-132.650,211.478,-185.822,-368.902,-318.744,-72.383,-352.500,-263.240,-2039.220
377,47776.32000,-130.692,213.502,-186.811,-364.898,-332.325,-70.469,-398.500,-293.240,-2080.220
378,47776.54000,-136.566,206.419,-180.880,-343.287,-356.714,-62.947,-444.500,-315.240,-2155.220
379,47776.82000,-147.335,201.360,-184.834,-318.775,-383.067,-52.521,-505.500,-309.240,-2232.220
380,47776.115000,-155.166,196.300,-183.846,-303.974,-392.872,-54.741,-534.500,-246.240,-2306.220
381,47776.115000,-148.314,193.265,-189.776,-272.665,-415.419,-43.455,-547.500,-177.240,-2323.220
382,47776.128000,-138.524,190.229,-200.649,-260.781,-429.069,-44.633,-568.500,-77.240,-2368.220
383,47776.161000,-137.545,182.134,-192.741,-225.455,-449.709,-40.312,-550.500,-70.240,-2429.220
384,47776.186000,-141.461,169.992,-194.718,-217.591,-455.586,-39.460,-551.500,-77.240,-2447.220
385,47776.189000,-141.461,165.945,-204.602,-183.296,-474.285,-33.154,-566.500,-102.240,-2451.220
386,47776.218000,-146.356,160.885,-214.486,-157.790,-490.967,-28.663,-544.500,-122.240,-2455.220
387,47776.236000,-145.377,147.731,-204.602,-123.525,-493.213,-29.267,-485.500,-37.240,-2433.220
388,47776.262000,-126.776,133.565,-201.637,-88.358,-502.248,-22.003,-462.500,-55.240,-2401.220
389,47776.277000,-132.650,125.470,-212.510,-64.829,-509.234,-21.426,-446.500,-149.240,-2380.220
390,47776.302000,-143.419,118.387,-209.544,-18.891,-513.527,-17.312,-427.500,-244.240,-2361.220
391,47776.326000,-148.314,97.138,-200.649,-9.097,-516.519,-16.497,-374.500,-159.240,-2299.220
392,47776.341000,-133.629,81.960,-208.556,28.986,-515.902,-13.234,-348.500,-98.240,-2239.220
393,47776.363000,-125.797,78.925,-204.602,53.423,-517.094,-11.696,-313.500,-218.240,-2209.220
394,47776.381000,-150.272,61.723,-200.649,86.570,-515.468,-6.377,-274.500,-289.240,-2162.220
395,47776.398000,-156.145,48.569,-196.695,125.639,-511.956,-5.104,-246.500,-110.240,-2127.220
396,47776.424000,-134.608,46.545,-192.741,137.276,-506.261,-2.363,-229.500,-77.240,-2102.220
397,47776.448000,-134.608,33.391,-193.730,172.405,-499.812,-1.023,-211.500,-162.240,-2078.220
398,47776.457000,-155.166,20.237,-188.788,193.808,-488.399,-0.431,-201.500,-109.240,-2065.220
399,47776.480000,-139.503,12.142,-180.880,226.132,-484.820,-4.945,-162.500,118.760,-2026.220
400,47776.533000,-120.902,3.036,-177.915,244.660,-476.281,-6.267,-137.500,169.760,-1996.220
401,47776.538000,-124.818,-9.107,-177.915,280.766,-464.033,-7.905,-111.500,103.760,-1960.220
402,47776.552000,-133.629,-22.261,-173.961,310.947,-445.927,-9.444,-94.500,160.760,-1898.220
403,47776.569000,-111.113,-24.285,-171.985,320.626,-434.407,-9.629,-67.500,153.760,-1823.220
404,47776.592000,-111.113,-37.439,-175.938,347.838,-418.212,-8.160,-33.500,-12.240,-1753.220
405,47776.609000,-136.566,-49.581,-173.961,367.371,-410.649,-10.484,27.500,48.760,-1650.220
406,47776.638000,-122.860,-64.759,-180.880,389.672,-392.475,-8.931,67.500,-19.240,-1545.220
407,47776.645000,-106.218,-64.759,-184.834,395.368,-382.859,-4.120,83.500,-160.240,-1531.220
408,47776.672000,-122.860,-65.771,-169.019,421.549,-364.723,-0.667,92.500,-395.240,-1522.220
409,47776.694000,-127.755,-79.937,-165.066,428.195,-348.342,2.150,76.500,-338.240,-1504.220
410,47776.716000,-99.365,-83.984,-164.077,460.204,-331.229,8.454,26.500,-350.240,-1538.220
411,47776.733000,-91.533,-93.091,-155.181,465.740,-304.200,13.247,-34.500,-316.240,-1556.220
412,47776.750000,-80.765,-103.209,-137.390,481.289,-294.670,13.945,-107.500,-93.240,-1518.220
413,47776.772000,-56.291,-110.292,-141.344,494.853,-274.476,10.728,-164.500,3.760,-1451.220
414,47776.794000,-11.258,-113.328,-140.355,500.660,-260.014,6.671,-200.500,-65.240,-1304.220
415,47776.812000,6.363,-129.518,-141.344,511.254,-241.731,6.462,-253.500,-148.240,-1120.220
416,47776.836000,3.426,-143.684,-143.320,522.959,-234.097,4.277,-277.500,-194.240,-1031.220
417,47776.858000,22.027,-138.625,-152.216,523.821,-215.722,1.287,-287.500,-321.240,-839.220
418,47776.881000,6.363,-146.719,-166.054,533.561,-209.038,0.122,-265.500,-357.240,-668.220
419,47776.901000,-13.216,-151.779,-174.950,535.499,-205.186,-0.901,-210.500,-143.240,-490.220
420,47776.918000,-15.174,-149.755,-178.903,541.395,-200.398,-4.949,-134.500,70.760,-321.220
421,47776.938000,-3.426,-151.779,-174.950,534.501,-195.499,-4.833,-80.500,56.760,-181.220
422,47776.966000,-16.153,-153.802,-177.915,536.484,-196.483,-5.851,-53.500,38.760,-51.220
423,47776.995000,-41.606,-158.862,-187.799,543.360,-195.576,-7.943,-4.500,176.760,61.780
424,47777.3000,-35.732,-156.838,-181.869,544.347,-198.488,-6.972,15.500,203.760,102.780
425,47777.21000,-38.669,-157.850,-180.880,536.563,-199.382,-8.802,37.500,196.760,165.780
426,47777.41000,-43.564,-158.862,-176.927,528.788,-203.180,-9.645,53.500,185.760,241.780
427,47777.58000,-52.375,-158.862,-172.973,533.734,-210.964,-8.739,61.500,212.760,319.780
428,47777.81000,-50.417,-155.826,-165.066,530.852,-214.806,-9.668,54.500,252.760,393.780
429,47777.103000,-37.690,-149.755,-156.170,526.073,-221.531,-12.529,27.500,224.760,456.780
430,47777.117000,-28.880,-146.719,-148.263,527.061,-224.443,-11.558,-11.500,170.760,512.780
431,47777.140000,-20.069,-140.648,-140.355,523.314,-235.045,-15.417,-66.500,134.760,583.780
432,47777.164000,-6.363,-135.589,-131.459,513.600,-238.823,-17.210,-146.500,138.760,678.780
433,47777.181000,-12.237,-130.530,-145.297,503.082,-254.198,-22.913,-194.500,123.760,740.780
434,47777.205000,-18.111,-125.470,-159.135,494.531,-270.558,-28.649,-257.500,115.760,866.780
435,47777.221000,-1.468,-109.281,-155.181,487.770,-276.298,-30.491,-283.500,167.760,997.780
436,47777.244000,-25.943,-93.091,-171.985,473.382,-292.603,-38.093,-317.500,156.760,1130.780
437,47777.267000,-51.396,-93.091,-184.834,465.756,-305.103,-42.866,-277.500,270.760,1288.780
438,47777.290000,-27.901,-81.960,-173.961,449.569,-327.189,-56.336,-230.500,554.760,1428.780
439,47777.310000,-11.258,-57.676,-183.846,435.914,-331.901,-56.089,-273.500,529.760,1540.780
440,47777.327000,-72.933,-53.628,-221.405,411.865,-355.853,-66.465,-277.500,436.760,1642.780
441,47777.349000,-81.744,-57.676,-218.440,407.444,-373.204,-84.086,-211.500,624.760,1759.780
442,47777.372000,-23.985,-36.427,-205.591,379.313,-386.483,-90.464,-217.500,994.760,1803.780
443,47777.389000,-11.258,-7.083,-206.579,347.372,-399.720,-102.681,-287.500,743.760,1847.780
444,47777.412000,-56.291,0.000,-220.417,329.944,-410.197,-107.283,-341.500,351.760,1895.780
445,47777.431000,-71.954,3.036,-227.336,294.029,-424.370,-115.491,-330.500,309.760,1969.780
446,47777.468000,-65.101,16.190,-228.324,287.381,-434.943,-121.268,-315.500,270.760,2035.780
447,47777.477000,-67.059,40.474,-224.371,246.452,-447.143,-123.483,-292.500,140.760,2099.780
448,47777.498000,-91.533,48.569,-233.266,232.859,-456.691,-124.216,-242.500,0.760,2203.780
449,47777.541000,-96.428,60.711,-239.197,193.862,-469.878,-124.495,-160.500,-132.240,2252.780
450,47777.543000,-127.755,78.925,-241.174,154.811,-479.196,-123.793,-127.500,-215.240,2270.780
451,47777.557000,-173.767,82.972,-240.185,130.306,-479.944,-120.405,-53.500,-106.240,2315.780
452,47777.573000,-147.335,93.091,-231.290,101.135,-488.378,-125.786,21.500,278.760,2337.780
453,47777.595000,-115.029,104.221,-233.266,76.715,-487.185,-128.308,41.500,193.760,2338.780
454,47777.614000,-148.314,110.292,-230.301,39.534,-490.719,-125.678,51.500,-112.240,2303.780
455,47777.637000,-195.304,110.292,-223.382,25.870,-494.464,-125.431,70.500,54.760,2267.780
456,47777.659000,-162.019,123.447,-212.510,-18.163,-488.256,-127.613,78.500,366.760,2242.780
457,47777.682000,-127.755,131.542,-207.568,-50.316,-484.083,-136.894,35.500,298.760,2215.780
458,47777.704000,-173.767,116.364,-222.394,-65.999,-479.103,-137.606,6.500,306.760,2160.780
459,47777.724000,-159.082,124.459,-204.602,-93.382,-467.238,-144.027,8.500,437.760,2124.780
460,47777.742000,-133.629,140.648,-197.683,-110.035,-463.216,-144.721,-31.500,365.760,2068.780
461,47777.767000,-144.398,149.755,-194.718,-143.306,-453.235,-149.067,-82.500,323.760,2031.780
462,47777.776000,-157.124,137.613,-195.707,-157.016,-444.400,-152.772,-108.500,580.760,2033.780
463,47777.806000,-115.029,125.470,-201.637,-192.246,-428.593,-160.043,-99.500,708.760,2010.780
464,47777.843000,-79.786,131.542,-195.707,-198.153,-420.799,-161.917,-141.500,390.760,1942.780
465,47777.857000,-117.966,143.684,-192.741,-223.668,-403.149,-166.408,-169.500,264.760,1908.780
466,47777.871000,-125.797,150.767,-174.950,-252.134,-387.410,-168.876,-157.500,529.760,1912.780
467,47777.888000,-78.807,155.826,-177.915,-262.009,-373.775,-170.686,-163.500,525.760,1887.780
468,47777.907000,-64.122,177.075,-182.857,-285.566,-360.015,-173.239,-218.500,273.760,1863.780
469,47777.929000,-103.281,190.229,-178.903,-302.384,-349.227,-168.032,-313.500,164.760,1842.780
470,47777.947000,-102.302,208.443,-179.892,-320.149,-330.685,-168.724,-409.500,317.760,1810.780
471,47777.975000,-65.101,221.597,-185.822,-327.131,-319.984,-166.644,-499.500,237.760,1746.780
472,47777.989000,-39.648,226.656,-190.764,-344.091,-299.525,-158.492,-595.500,-196.240,1668.780
473,47778.15000,-53.354,225.644,-195.707,-365.041,-283.874,-143.373,-675.500,-658.240,1627.780
474,47778.33000,-101.323,215.526,-212.510,-373.077,-279.943,-133.391,-660.500,-771.240,1616.780
475,47778.53000,-122.860,217.549,-207.568,-382.347,-261.499,-116.513,-573.500,-660.240,1594.780
476,47778.73000,-125.797,211.478,-207.568,-402.092,-251.652,-111.253,-528.500,-638.240,1598.780
477,47778.88000,-122.860,207.431,-216.463,-412.270,-237.066,-96.323,-443.500,-758.240,1551.780
478,47778.111000,-156.145,207.431,-217.452,-416.324,-231.231,-91.336,-376.500,-898.240,1461.780
479,47778.156000,-240.337,195.289,-230.301,-424.476,-214.724,-81.366,-291.500,-524.240,1300.780
480,47778.170000,-247.189,177.075,-239.197,-432.393,-204.979,-81.238,-221.500,96.760,1052.780
481,47778.176000,-198.241,175.051,-251.058,-440.310,-195.233,-81.109,-182.500,229.760,780.780
482,47778.193000,-163.977,177.075,-253.035,-441.368,-188.454,-80.114,-135.500,32.760,475.780
483,47778.215000,-165.935,183.146,-233.266,-438.511,-187.517,-76.228,-99.500,-57.240,176.780
484,47778.236000,-155.166,194.277,-213.498,-439.455,-187.506,-78.180,-72.500,-33.240,-27.220
485,47778.256000,-116.987,198.324,-210.533,-439.481,-186.540,-77.196,-56.500,-56.240,-105.220
486,47778.278000,-92.512,196.300,-209.544,-435.591,-195.288,-71.348,-29.500,-173.240,-240.220
487,47778.296000,-96.428,188.206,-199.660,-440.370,-198.140,-76.182,7.500,-154.240,-357.220
488,47778.324000,-98.386,184.158,-182.857,-427.648,-204.063,-73.447,36.500,7.760,-437.220
489,47778.339000,-85.660,180.111,-176.927,-433.371,-208.841,-79.247,72.500,122.760,-487.220
490,47778.361000,-75.870,178.087,-174.950,-424.573,-209.890,-78.417,90.500,119.760,-540.220
491,47778.383000,-85.660,181.123,-174.950,-424.432,-217.625,-82.348,109.500,187.760,-572.220
492,47778.398000,-91.533,187.194,-170.996,-425.376,-219.550,-83.314,125.500,230.760,-603.220
493,47778.424000,-108.176,184.158,-176.927,-414.472,-227.383,-87.435,129.500,234.760,-621.220
494,47778.445000,-143.419,184.158,-198.672,-411.475,-232.246,-88.467,129.500,191.760,-689.220
495,47778.467000,-156.145,190.229,-200.649,-412.234,-242.872,-95.332,152.500,179.760,-828.220
496,47778.489000,-151.250,197.312,-220.417,-407.279,-249.688,-95.412,155.500,120.760,-1006.220
497,47778.509000,-167.893,203.383,-235.243,-394.418,-261.410,-97.595,150.500,-139.240,-1217.220
498,47778.532000,-187.472,218.561,-239.197,-382.411,-282.796,-101.720,149.500,-263.240,-1396.220
499,47778.541000,-182.577,231.715,-246.116,-380.435,-290.556,-98.792,167.500,-203.240,-1538.220
500,47778.563000,-171.809,235.763,-245.127,-366.488,-311.961,-101.967,218.500,-196.240,-1706.220
501,47778.586000,-169.851,249.929,-249.081,-350.708,-325.647,-102.231,250.500,-389.240,-1882.220
502,47778.610000,-169.851,250.941,-246.116,-331.894,-350.001,-102.535,257.500,-501.240,-1972.220
503,47778.623000,-179.641,223.621,-234.255,-323.076,-358.791,-98.743,284.500,-613.240,-2112.220
504,47778.646000,-181.598,213.502,-221.405,-297.431,-383.209,-98.184,285.500,-482.240,-2231.220
505,47778.666000,-166.914,213.502,-219.429,-262.043,-406.750,-95.829,274.500,-287.240,-2321.220
506,47778.683000,-146.356,204.395,-211.521,-246.325,-415.600,-95.112,263.500,-202.240,-2401.220
507,47778.707000,-137.545,191.241,-205.591,-215.717,-438.122,-99.565,240.500,-185.240,-2448.220
508,47778.729000,-136.566,183.146,-201.637,-190.213,-448.997,-98.035,208.500,-111.240,-2491.220
509,47778.739000,-121.881,180.111,-193.730,-152.845,-465.779,-100.645,216.500,20.760,-2492.220
510,47778.757000,-115.029,166.957,-189.776,-142.954,-473.605,-102.780,222.500,59.760,-2483.220
511,47778.786000,-105.239,158.862,-194.718,-101.804,-479.783,-103.501,223.500,125.760,-2457.220
512,47778.821000,-100.344,149.755,-192.741,-78.267,-483.865,-104.897,234.500,125.760,-2430.220
513,47778.823000,-100.344,130.530,-191.753,-38.036,-489.063,-109.540,255.500,155.760,-2383.220
514,47778.849000,-95.449,114.340,-192.741,-1.779,-491.325,-112.148,273.500,199.760,-2328.220
515,47778.882000,-88.597,102.198,-191.753,13.947,-493.399,-115.377,286.500,191.760,-2260.220
516,47778.886000,-82.723,90.055,-187.799,53.034,-491.822,-114.102,288.500,148.760,-2166.220
517,47778.907000,-82.723,70.830,-188.788,69.659,-491.006,-114.397,306.500,65.760,-2052.220
518,47778.935000,-83.702,52.617,-188.788,102.814,-486.476,-111.051,302.500,-40.240,-1977.220
519,47778.952000,-90.554,47.557,-183.846,129.295,-487.680,-114.471,294.500,-68.240,-1950.220
520,47778.974000,-100.344,29.344,-188.788,160.440,-481.199,-109.123,285.500,-51.240,-1877.220
521,47778.997000,-91.533,12.142,-190.764,188.710,-469.848,-109.637,272.500,37.760,-1821.220
522,47779.31000,-72.933,4.047,-185.822,200.382,-468.023,-106.892,237.500,-31.240,-1790.220
523,47779.49000,-82.723,0.000,-184.834,228.592,-459.579,-102.479,186.500,-162.240,-1766.220
524,47779.63000,-90.554,-12.142,-182.857,247.086,-452.979,-100.845,159.500,-50.240,-1713.220
525,47779.77000,-63.143,-22.261,-191.753,276.317,-441.638,-100.391,145.500,17.760,-1654.220
526,47779.99000,-40.627,-35.415,-194.718,284.030,-433.004,-98.568,139.500,-222.240,-1592.220
527,47779.122000,-57.270,-49.581,-197.683,311.235,-423.585,-93.154,130.500,-357.240,-1512.220
528,47779.145000,-76.849,-54.640,-194.718,320.853,-414.972,-88.412,124.500,-387.240,-1464.220
529,47779.162000,-71.954,-62.735,-194.718,345.088,-405.528,-80.976,152.500,-299.240,-1360.220
530,47779.180000,-72.933,-69.818,-190.764,364.508,-393.132,-79.365,174.500,-240.240,-1265.220
531,47779.202000,-69.017,-76.901,-187.799,373.183,-386.444,-75.589,189.500,-180.240,-1166.220
532,47779.224000,-59.228,-81.960,-188.788,392.534,-375.988,-69.052,187.500,-194.240,-1073.220
533,47779.246000,-54.333,-88.032,-181.869,394.394,-371.171,-66.138,170.500,-262.240,-1004.220
534,47779.263000,-58.249,-94.103,-177.915,410.818,-359.720,-60.535,145.500,-311.240,-962.220
535,47779.283000,-66.080,-102.198,-170.008,414.583,-351.052,-56.674,120.500,-215.240,-908.220
536,47779.304000,-57.270,-112.316,-165.066,431.119,-340.562,-56.979,101.500,-171.240,-875.220
537,47779.327000,-47.480,-113.328,-167.042,436.815,-330.946,-52.168,53.500,-165.240,-814.220
538,47779.344000,-48.459,-117.375,-168.031,448.513,-328.152,-51.394,18.500,-197.240,-735.220
539,47779.362000,-44.543,-126.482,-162.100,454.234,-317.567,-48.554,-9.500,-175.240,-658.220
540,47779.395000,-44.543,-128.506,-161.112,463.991,-312.818,-49.717,-39.500,-161.240,-586.220
541,47779.413000,-48.459,-130.530,-168.031,460.985,-306.988,-48.686,-54.500,-143.240,-500.220
542,47779.458000,-46.501,-133.565,-169.019,467.826,-306.083,-48.808,-63.500,-106.240,-405.220
543,47779.467000,-54.333,-134.577,-173.961,463.902,-299.272,-51.700,-69.500,-50.240,-324.220
544,47779.486000,-60.207,-133.565,-180.880,471.659,-295.476,-49.873,-57.500,-1.240,-255.220
545,47779.492000,-56.291,-133.565,-178.903,473.633,-293.557,-51.879,-53.500,50.760,-227.220
546,47779.514000,-68.038,-137.613,-183.846,473.606,-290.654,-51.882,-54.500,45.760,-173.220
547,47779.534000,-81.744,-137.613,-190.764,482.412,-288.799,-53.024,-53.500,136.760,-120.220
548,47779.555000,-77.828,-138.625,-199.660,469.743,-286.744,-56.740,-32.500,205.760,-84.220
549,47779.571000,-68.038,-133.565,-206.579,482.524,-287.825,-59.919,-0.500,112.760,-66.220
550,47779.591000,-92.512,-134.577,-210.533,479.528,-284.898,-57.900,45.500,174.760,-58.220
551,47779.608000,-89.576,-133.565,-200.649,482.498,-286.858,-58.935,86.500,281.760,-34.220
552,47779.631000,-54.333,-137.613,-190.764,475.701,-286.793,-61.768,76.500,94.760,-22.220
553,47779.653000,-45.522,-139.636,-184.834,477.571,-286.816,-56.879,61.500,-15.240,-8.220
554,47779.667000,-53.354,-138.625,-174.950,474.661,-283.884,-59.784,25.500,-45.240,40.780
555,47779.693000,-39.648,-134.577,-156.170,475.632,-286.797,-57.829,-8.500,123.760,112.780
556,47779.716000,-13.216,-131.542,-146.286,477.632,-287.780,-59.832,-69.500,162.760,197.780
557,47779.731000,4.405,-131.542,-145.297,475.824,-294.529,-64.715,-134.500,201.760,316.780
558,47779.745000,20.069,-130.530,-135.413,464.176,-291.513,-71.403,-214.500,259.760,473.780
559,47779.800000,29.859,-127.494,-136.402,455.510,-299.169,-75.179,-285.500,319.760,673.780
560,47779.806000,27.901,-107.257,-138.378,456.839,-314.644,-86.998,-334.500,375.760,874.780
561,47779.819000,43.564,-94.103,-131.459,441.367,-323.203,-92.621,-382.500,450.760,1051.780
562,47779.837000,48.459,-80.949,-147.274,422.182,-338.490,-106.046,-429.500,427.760,1145.780
563,47779.858000,9.300,-73.866,-175.938,414.468,-345.187,-108.855,-501.500,258.760,1324.780
564,47779.878000,-1.468,-63.747,-178.903,389.464,-362.354,-124.143,-515.500,352.760,1485.780
565,47779.898000,41.606,-44.522,-179.892,377.889,-372.884,-127.864,-533.500,575.760,1660.780
566,47779.928000,14.195,-32.379,-212.510,343.065,-388.028,-141.997,-607.500,259.760,1756.780
567,47779.955000,-53.354,-26.308,-234.255,333.413,-398.579,-143.783,-611.500,99.760,1833.780
568,47779.973000,-45.522,-10.119,-238.208,301.508,-415.686,-155.996,-546.500,426.760,1941.780
569,47779.988000,-18.111,8.095,-239.197,267.549,-426.005,-166.212,-518.500,488.760,2002.780
570,47780.6000,-51.396,15.178,-256.000,244.214,-432.558,-170.714,-524.500,356.760,2059.780
571,47780.23000,-76.849,28.332,-263.907,209.286,-445.772,-179.925,-501.500,267.760,2085.780
572,47780.51000,-59.228,46.545,-265.884,187.863,-449.442,-183.480,-434.500,411.760,2150.780
573,47780.71000,-62.164,60.711,-262.919,153.825,-454.926,-191.731,-392.500,377.760,2203.780
574,47780.102000,-102.302,67.794,-258.965,135.356,-458.622,-196.322,-359.500,400.760,2242.780
575,47780.105000,-85.660,74.877,-255.012,98.407,-459.238,-208.466,-313.500,700.760,2310.780
576,47780.131000,-31.816,92.079,-245.127,64.255,-457.954,-213.770,-298.500,639.760,2333.780
577,47780.156000,-42.585,114.340,-238.208,34.018,-460.576,-217.169,-347.500,202.760,2343.780
578,47780.171000,-96.428,121.423,-230.301,-3.219,-452.498,-217.505,-341.500,203.760,2378.780
579,47780.188000,-81.744,114.340,-243.151,-21.724,-452.324,-222.100,-332.500,285.760,2426.780
580,47780.206000,-52.375,133.565,-244.139,-54.085,-444.291,-221.536,-338.500,217.760,2414.780
581,47780.238000,-85.660,151.779,-241.174,-72.737,-443.158,-218.254,-359.500,-105.240,2444.780
582,47780.271000,-129.713,142.672,-249.081,-116.849,-437.922,-215.511,-323.500,-104.240,2460.780
583,47780.285000,-107.197,147.731,-248.093,-128.680,-428.141,-215.313,-259.500,40.760,2438.780
584,47780.293000,-92.512,165.945,-240.185,-168.012,-418.117,-208.722,-254.500,-159.240,2381.780
585,47780.316000,-132.650,176.063,-240.185,-201.535,-403.311,-201.255,-221.500,-237.240,2321.780
586,47780.338000,-151.250,172.016,-241.174,-206.455,-398.428,-202.159,-151.500,30.760,2279.780
587,47780.366000,-117.966,180.111,-234.255,-236.949,-378.803,-202.627,-112.500,160.760,2212.780
588,47780.377000,-115.029,184.158,-224.371,-259.535,-367.956,-203.224,-114.500,255.760,2191.780
589,47780.392000,-139.503,163.921,-228.324,-282.166,-348.401,-205.800,-128.500,445.760,2160.780
590,47780.410000,-92.512,154.814,-214.486,-285.184,-331.924,-209.704,-131.500,749.760,2101.780
591,47780.435000,-44.543,157.850,-205.591,-313.678,-307.475,-215.135,-237.500,584.760,2022.780
592,47780.457000,-39.648,163.921,-209.544,-333.539,-286.988,-208.901,-401.500,219.760,1924.780
593,47780.474000,-69.017,171.004,-211.521,-341.498,-282.084,-203.843,-523.500,106.760,1813.780
594,47780.502000,-69.017,177.075,-214.486,-358.432,-258.720,-198.649,-573.500,247.760,1704.780
595,47780.520000,-35.732,188.206,-212.510,-373.207,-251.817,-196.427,-611.500,110.760,1632.780
596,47780.542000,-36.711,200.348,-212.510,-389.248,-230.402,-185.339,-618.500,-46.240,1608.780
597,47780.562000,-76.849,206.419,-214.486,-391.389,-221.684,-179.404,-602.500,-321.240,1634.780
598,47780.586000,-118.945,201.360,-231.290,-407.344,-204.136,-171.267,-511.500,-298.240,1646.780
599,47780.606000,-112.092,204.395,-229.313,-417.330,-195.347,-164.210,-408.500,-260.240,1574.780
600,47780.631000,-113.071,198.324,-228.324,-427.430,-179.789,-154.204,-336.500,-410.240,1440.780
601,47780.641000,-142.440,189.217,-236.232,-435.478,-165.212,-149.157,-282.500,-485.240,1245.780
602,47780.673000,-175.725,180.111,-240.185,-437.480,-158.422,-150.114,-219.500,-252.240,995.780
603,47780.692000,-155.166,171.004,-235.243,-441.604,-150.655,-142.174,-198.500,-106.240,738.780
604,47780.711000,-133.629,164.933,-232.278,-440.635,-147.760,-143.179,-203.500,-193.240,466.780
605,47780.717000,-116.987,163.921,-226.347,-441.709,-144.853,-139.226,-220.500,-267.240,349.780
606,47780.736000,-115.029,163.921,-222.394,-446.653,-144.811,-136.185,-254.500,-343.240,114.780
607,47780.763000,-103.281,161.897,-218.440,-450.671,-146.717,-129.221,-264.500,-236.240,-84.220
608,47780.788000,-80.765,160.885,-212.510,-444.859,-151.614,-123.411,-255.500,-132.240,-258.220
609,47780.808000,-54.333,157.850,-206.579,-440.961,-155.522,-120.522,-267.500,-136.240,-405.220
610,47780.831000,-62.164,163.921,-205.591,-443.904,-160.335,-117.511,-275.500,-26.240,-520.220
611,47780.846000,-63.143,157.850,-204.602,-444.820,-169.034,-116.500,-247.500,185.760,-595.220
612,47780.866000,-33.774,164.933,-200.649,-436.966,-170.071,-117.622,-228.500,201.760,-647.220
613,47780.883000,-30.837,169.992,-202.625,-437.882,-176.834,-117.598,-215.500,157.760,-662.220
614,47780.897000,-49.438,173.028,-209.544,-437.872,-181.673,-115.624,-169.500,158.760,-669.220
615,47780.930000,-60.207,177.075,-218.440,-429.965,-186.580,-117.727,-91.500,251.760,-679.220
616,47780.952000,-59.228,182.134,-231.290,-426.915,-195.311,-119.740,-12.500,192.760,-700.220
617,47780.969000,-74.891,186.182,-248.093,-418.037,-205.066,-118.901,64.500,-31.240,-757.220
618,47780.990000,-95.449,191.241,-261.931,-416.961,-213.781,-119.894,163.500,-261.240,-842.220
619,47781.12000,-118.945,199.336,-280.710,-420.673,-226.316,-124.736,292.500,-415.240,-935.220
620,47781.37000,-137.545,209.455,-296.525,-408.929,-232.231,-121.983,442.500,-497.240,-1056.220
621,47781.66000,-153.208,214.514,-300.479,-399.894,-249.720,-126.061,603.500,-526.240,-1167.220
622,47781.75000,-162.019,220.585,-297.514,-394.825,-261.369,-130.075,682.500,-516.240,-1223.220
623,47781.97000,-171.809,225.644,-290.595,-378.887,-280.854,-136.240,834.500,-400.240,-1331.220
624,47781.122000,-151.250,230.704,-273.792,-359.998,-298.429,-144.430,959.500,-366.240,-1400.220
625,47781.137000,-131.671,218.561,-261.931,-351.976,-310.104,-149.480,1012.500,-501.240,-1486.220
626,47781.160000,-121.881,204.395,-230.301,-325.275,-331.622,-154.850,972.500,-607.240,-1593.220
627,47781.180000,-102.302,197.312,-215.475,-318.268,-339.419,-159.887,928.500,-655.240,-1660.220
628,47781.197000,-104.260,184.158,-201.637,-292.639,-363.837,-158.343,849.500,-828.240,-1735.220
629,47781.220000,-110.134,163.921,-180.880,-285.717,-375.510,-156.483,723.500,-843.240,-1826.220
630,47781.248000,-67.059,146.719,-159.135,-261.129,-397.019,-152.955,573.500,-766.240,-1853.220
631,47781.263000,-48.459,122.435,-163.089,-248.385,-422.299,-141.337,480.500,-880.240,-1855.220
632,47781.284000,-83.702,111.304,-166.054,-218.093,-429.353,-135.958,230.500,-1280.240,-1924.220
633,47781.306000,-111.113,105.233,-158.147,-189.884,-452.850,-114.772,-15.500,-1425.240,-1955.220
634,47781.323000,-117.966,88.032,-151.228,-175.317,-461.701,-104.190,-227.500,-1306.240,-1971.220
635,47781.342000,-117.966,80.949,-160.124,-150.088,-478.398,-83.943,-402.500,-1179.240,-1991.220
636,47781.358000,-122.860,88.032,-168.031,-138.448,-486.254,-74.296,-539.500,-1091.240,-2026.220
637,47781.381000,-126.776,88.032,-169.019,-107.366,-499.134,-55.141,-600.500,-962.240,-2035.220
638,47781.410000,-134.608,74.877,-164.077,-89.900,-502.207,-45.602,-639.500,-838.240,-2033.220
639,47781.432000,-136.566,69.818,-169.019,-55.859,-508.337,-31.431,-667.500,-776.240,-2041.220
640,47781.441000,-145.377,72.854,-177.915,-26.667,-515.388,-19.141,-701.500,-698.240,-2065.220
641,47781.469000,-159.082,61.723,-176.927,-9.131,-518.457,-13.541,-693.500,-571.240,-2076.220
642,47781.488000,-154.187,49.581,-170.996,27.030,-519.756,-11.226,-675.500,-327.240,-2062.220
643,47781.505000,-141.461,42.498,-179.892,41.734,-520.856,-12.469,-675.500,-158.240,-2041.220
644,47781.528000,-140.482,43.510,-185.822,73.893,-514.382,-9.108,-660.500,-103.240,-2023.220
645,47781.546000,-149.293,28.332,-183.846,97.377,-518.467,-7.550,-628.500,-63.240,-1990.220
646,47781.568000,-141.461,19.225,-188.788,130.627,-511.027,-11.100,-612.500,14.760,-1958.220
647,47781.591000,-129.713,16.190,-198.672,158.940,-502.578,-12.595,-585.500,-71.240,-1916.220
648,47781.611000,-144.398,4.047,-197.683,174.570,-499.818,-12.875,-564.500,-108.240,-1895.220
649,47781.633000,-133.629,-3.036,-196.695,199.912,-487.472,-14.322,-515.500,-20.240,-1829.220
650,47781.651000,-120.902,-8.095,-196.695,220.451,-486.691,-14.687,-481.500,-31.240,-1767.220
651,47781.676000,-129.713,-17.202,-193.730,244.841,-473.367,-18.087,-434.500,-103.240,-1714.220
652,47781.691000,-135.587,-30.356,-191.753,259.509,-468.662,-20.321,-374.500,-29.240,-1630.220
653,47781.707000,-116.987,-40.474,-196.695,286.782,-457.303,-19.832,-318.500,-10.240,-1545.220
654,47781.725000,-101.323,-50.593,-195.707,298.452,-445.799,-22.021,-276.500,-242.240,-1477.220
655,47781.752000,-104.260,-58.688,-181.869,316.798,-434.367,-14.484,-270.500,-579.240,-1414.220
656,47781.772000,-122.860,-63.747,-182.857,340.089,-424.912,-9.000,-292.500,-706.240,-1368.220
657,47781.795000,-140.482,-65.771,-192.741,354.626,-417.310,-5.328,-297.500,-780.240,-1345.220
658,47781.812000,-153.208,-65.771,-193.730,375.969,-406.869,-0.796,-278.500,-623.240,-1282.220
659,47781.833000,-154.187,-71.842,-197.683,378.729,-397.227,4.066,-228.500,-379.240,-1221.220
660,47781.860000,-140.482,-71.842,-191.753,395.247,-384.802,3.760,-159.500,-171.240,-1189.220
661,47781.875000,-130.692,-75.889,-183.846,401.013,-377.118,5.617,-87.500,-63.240,-1142.220
662,47781.917000,-117.966,-89.043,-182.857,419.532,-365.676,3.308,-33.500,-63.240,-1082.220
663,47781.940000,-103.281,-91.067,-173.961,434.984,-347.440,4.982,-36.500,-94.240,-1023.220
664,47781.953000,-88.597,-92.079,-151.228,441.833,-347.502,4.861,-51.500,-9.240,-934.220
665,47781.962000,-74.891,-104.221,-132.448,455.442,-332.145,1.648,-72.500,43.760,-878.220
666,47781.985000,-57.270,-117.375,-142.332,457.337,-327.327,2.594,-134.500,8.760,-756.220
667,47782.5000,-40.627,-120.411,-137.390,461.170,-314.784,0.542,-198.500,-72.240,-641.220
668,47782.22000,-37.690,-120.411,-138.378,468.080,-315.811,-2.532,-271.500,-191.240,-533.220
669,47782.36000,-48.459,-118.387,-150.239,472.920,-311.987,-1.638,-286.500,-271.240,-436.220
670,47782.63000,-69.017,-127.494,-159.135,471.870,-304.239,-1.628,-264.500,-136.240,-308.220
671,47782.83000,-68.038,-129.518,-165.066,472.935,-304.243,-6.569,-226.500,23.760,-177.220
672,47782.106000,-62.164,-128.506,-174.950,477.878,-298.477,-12.570,-185.500,17.760,-55.220
673,47782.128000,-77.828,-127.494,-183.846,477.930,-300.410,-14.538,-132.500,39.760,54.780
674,47782.146000,-92.512,-127.494,-189.776,468.189,-301.287,-16.333,-99.500,95.760,109.780
675,47782.168000,-91.533,-127.494,-192.741,477.039,-302.332,-18.458,-43.500,171.760,190.780
676,47782.191000,-97.407,-124.459,-196.695,471.239,-308.082,-19.333,5.500,130.760,250.780
677,47782.207000,-107.197,-123.447,-194.718,465.403,-311.898,-19.225,48.500,125.760,300.780
678,47782.227000,-113.071,-121.423,-189.776,461.559,-315.730,-21.121,82.500,174.760,333.780
679,47782.250000,-112.092,-124.459,-186.811,457.733,-319.562,-24.003,108.500,247.760,367.780
680,47782.269000,-104.260,-120.411,-178.903,455.724,-319.547,-21.014,115.500,301.760,404.780
681,47782.286000,-82.723,-114.340,-168.031,448.998,-329.156,-22.852,88.500,324.760,454.780
682,47782.312000,-59.228,-105.233,-164.077,451.043,-333.041,-25.837,70.500,287.760,552.780
683,47782.332000,-66.080,-103.209,-173.961,441.372,-341.657,-27.625,75.500,248.760,606.780
684,47782.355000,-51.396,-105.233,-162.100,432.662,-346.411,-30.419,64.500,336.760,730.780
685,47782.387000,-23.006,-92.079,-151.228,418.134,-354.980,-34.090,-22.500,321.760,822.780
686,47782.406000,-38.669,-79.937,-162.100,422.189,-364.687,-37.103,-45.500,450.760,934.780
687,47782.412000,-53.354,-89.043,-176.927,408.673,-369.391,-44.734,-1.500,694.760,1071.780
688,47782.426000,-38.669,-93.091,-172.973,384.508,-382.703,-54.136,-44.500,799.760,1199.780
689,47782.448000,-4.405,-67.794,-160.124,371.090,-396.113,-62.743,-144.500,620.760,1386.780
690,47782.476000,-54.333,-57.676,-196.695,348.839,-408.477,-70.210,-110.500,509.760,1538.780
691,47782.491000,-42.585,-36.427,-176.927,339.176,-414.189,-73.970,-82.500,544.760,1603.780
692,47782.511000,-40.627,-13.154,-170.008,313.125,-431.350,-85.303,-104.500,525.760,1723.780
693,47782.533000,-82.723,-3.036,-207.568,299.548,-437.026,-88.994,-166.500,350.760,1845.780
694,47782.553000,-95.449,-1.012,-210.533,261.703,-452.148,-98.151,-122.500,419.760,1952.780
695,47782.577000,-71.954,15.178,-196.695,230.680,-464.429,-107.432,-85.500,587.760,2047.780
696,47782.594000,-69.996,34.403,-199.660,206.365,-467.102,-113.890,-128.500,513.760,2119.780
697,47782.616000,-109.155,38.451,-228.324,169.445,-480.300,-121.097,-160.500,370.760,2179.780
698,47782.650000,-110.134,51.605,-220.417,153.755,-480.160,-118.851,-68.500,424.760,2191.780
699,47782.665000,-100.344,67.794,-204.602,115.846,-484.638,-129.988,-59.500,422.760,2228.780
700,47782.678000,-111.113,79.937,-212.510,101.264,-487.403,-133.665,-76.500,320.760,2248.780
701,47782.701000,-150.272,73.866,-234.255,63.269,-493.822,-138.892,-97.500,216.760,2277.780
702,47782.720000,-147.335,89.043,-232.278,40.667,-484.912,-137.518,-67.500,337.760,2286.780
703,47782.751000,-124.818,110.292,-222.394,-0.144,-487.425,-151.560,-72.500,470.760,2283.780
704,47782.768000,-137.545,116.364,-231.290,-36.323,-482.255,-154.863,-119.500,445.760,2252.780
705,47782.797000,-141.461,120.411,-227.336,-45.114,-478.303,-157.666,-134.500,546.760,2185.780
706,47782.801000,-103.281,129.518,-213.498,-82.186,-467.312,-168.836,-166.500,592.760,2159.780
707,47782.822000,-100.344,139.636,-220.417,-105.724,-461.294,-168.427,-232.500,333.760,2110.780
708,47782.843000,-129.713,147.731,-212.510,-137.072,-451.332,-170.837,-258.500,296.760,2080.780
709,47782.866000,-127.755,164.933,-194.718,-149.734,-444.438,-177.512,-285.500,594.760,2064.780
710,47782.887000,-77.828,174.040,-187.799,-181.069,-420.924,-187.815,-302.500,956.760,2087.780
711,47782.907000,-51.396,167.968,-203.614,-209.510,-404.216,-192.253,-358.500,822.760,2107.780
712,47782.930000,-74.891,168.980,-218.440,-225.194,-395.364,-194.939,-431.500,374.760,2091.780
713,47782.947000,-86.639,189.217,-208.556,-247.946,-379.686,-188.649,-474.500,143.760,2113.780
714,47782.965000,-87.618,200.348,-207.568,-271.553,-367.865,-187.260,-485.500,71.760,2133.780
715,47782.990000,-89.576,198.324,-221.405,-296.271,-349.267,-181.922,-467.500,-9.240,2103.780
716,47783.7000,-101.323,189.217,-230.301,-306.136,-340.471,-181.758,-434.500,-86.240,2060.780
717,47783.30000,-96.428,202.372,-223.382,-326.110,-317.086,-170.603,-432.500,-109.240,2041.780
718,47783.52000,-97.407,212.490,-212.510,-346.888,-297.554,-167.305,-420.500,-108.240,2006.780
719,47783.72000,-87.618,217.549,-200.649,-361.759,-285.817,-162.133,-387.500,-31.240,1972.780
720,47783.93000,-82.723,222.609,-190.764,-381.620,-263.394,-156.886,-381.500,26.760,1930.780
721,47783.117000,-87.618,223.621,-182.857,-385.735,-254.658,-149.932,-417.500,160.760,1923.780
722,47783.145000,-81.744,222.609,-172.973,-407.555,-224.474,-148.597,-484.500,354.760,1924.780
723,47783.164000,-59.228,220.585,-170.996,-411.540,-216.699,-148.536,-559.500,306.760,1889.780
724,47783.182000,-47.480,226.656,-182.857,-425.687,-190.466,-136.503,-637.500,-9.240,1785.780
725,47783.200000,-57.270,227.668,-191.753,-432.800,-174.932,-129.504,-667.500,-208.240,1697.780
726,47783.217000,-84.681,222.609,-210.533,-446.874,-160.310,-115.490,-731.500,-582.240,1644.780
727,47783.245000,-91.533,219.573,-222.394,-457.010,-142.819,-104.502,-705.500,-878.240,1527.780
728,47783.259000,-106.218,220.585,-222.394,-459.263,-135.075,-91.673,-627.500,-1164.240,1394.780
729,47783.282000,-122.860,214.514,-222.394,-470.349,-122.412,-79.678,-515.500,-1262.240,1266.780
730,47783.297000,-137.545,213.502,-230.301,-465.614,-116.658,-73.862,-428.500,-1239.240,1086.780
731,47783.315000,-141.461,201.360,-232.278,-468.742,-106.963,-67.911,-324.500,-1079.240,896.780
732,47783.337000,-131.671,194.277,-225.359,-475.723,-102.069,-62.871,-232.500,-860.240,666.780
733,47783.358000,-117.966,194.277,-213.498,-479.820,-95.268,-55.916,-168.500,-619.240,435.780
734,47783.371000,-106.218,191.241,-206.579,-478.946,-93.347,-51.011,-137.500,-517.240,313.780
735,47783.403000,-101.323,188.206,-211.521,-474.028,-92.422,-53.068,-93.500,-359.240,45.780
736,47783.440000,-96.428,184.158,-214.486,-474.961,-99.186,-52.059,-67.500,-127.240,-186.220
737,47783.448000,-78.807,184.158,-212.510,-479.861,-103.982,-49.013,-48.500,89.760,-382.220
738,47783.463000,-71.954,189.217,-205.591,-473.833,-109.834,-55.020,-10.500,228.760,-545.220
739,47783.486000,-69.996,189.217,-194.718,-471.805,-115.655,-56.034,32.500,314.760,-673.220
740,47783.508000,-70.975,196.300,-190.764,-472.652,-124.350,-58.962,70.500,365.760,-775.220
741,47783.521000,-75.870,206.419,-198.672,-467.706,-130.199,-59.042,127.500,427.760,-886.220
742,47783.555000,-99.365,216.538,-207.568,-459.633,-143.807,-66.060,236.500,522.760,-996.220
743,47783.572000,-104.260,220.585,-209.544,-457.500,-151.558,-71.996,294.500,753.760,-1043.220
744,47783.590000,-105.239,221.597,-204.602,-457.222,-159.285,-83.805,410.500,847.760,-1144.220
745,47783.612000,-95.449,228.680,-193.730,-442.245,-178.760,-90.939,474.500,688.760,-1191.220
746,47783.630000,-88.597,228.680,-200.649,-441.135,-185.537,-94.888,481.500,233.760,-1229.220
747,47783.652000,-102.302,229.692,-209.544,-435.962,-202.988,-101.850,463.500,-191.240,-1321.220
748,47783.667000,-130.692,241.834,-213.498,-429.880,-216.580,-106.864,463.500,-309.240,-1438.220
749,47783.687000,-143.419,252.964,-212.510,-414.947,-235.089,-112.029,484.500,-205.240,-1526.220
750,47783.720000,-132.650,249.929,-212.510,-402.896,-257.440,-118.123,491.500,-171.240,-1628.220
751,47783.737000,-121.881,248.917,-211.521,-396.859,-266.195,-123.142,491.500,-186.240,-1682.220
752,47783.760000,-116.987,247.905,-205.591,-381.933,-291.480,-124.361,475.500,-266.240,-1758.220
753,47783.768000,-114.050,235.763,-209.544,-368.032,-304.176,-129.514,407.500,-311.240,-1837.220
754,47783.788000,-112.092,231.715,-216.463,-351.184,-325.610,-130.771,360.500,-259.240,-1932.220
755,47783.811000,-114.050,212.490,-215.475,-340.272,-334.410,-134.892,342.500,-145.240,-2033.220
756,47783.833000,-116.008,201.360,-220.417,-319.421,-365.553,-136.209,317.500,-90.240,-2180.220
757,47783.853000,-103.281,199.336,-211.521,-304.664,-372.457,-137.446,270.500,26.760,-2309.220
758,47783.876000,-91.533,191.241,-205.591,-271.113,-394.038,-142.937,238.500,98.760,-2394.220
759,47783.908000,-94.470,175.051,-215.475,-239.475,-420.438,-148.388,200.500,85.760,-2477.220
760,47783.927000,-98.386,171.004,-220.417,-219.852,-426.420,-148.728,183.500,88.760,-2519.220
761,47783.944000,-104.260,169.992,-207.568,-183.331,-446.089,-157.227,156.500,195.760,-2578.220
762,47783.957000,-88.597,155.826,-192.741,-167.614,-449.132,-159.470,159.500,482.760,-2584.220
763,47783.980000,-62.164,137.613,-201.637,-131.096,-459.123,-172.903,175.500,645.760,-2555.220
764,47783.996000,-45.522,132.553,-202.625,-108.495,-462.225,-177.237,196.500,486.760,-2557.220
765,47784.16000,-37.690,127.494,-189.776,-67.231,-473.237,-181.892,164.500,261.760,-2499.220
766,47784.28000,-45.522,103.209,-192.741,-30.922,-475.496,-187.454,129.500,38.760,-2442.220
767,47784.56000,-51.396,97.138,-203.614,-11.325,-480.512,-186.810,57.500,-144.240,-2405.220
768,47784.73000,-60.207,90.055,-195.707,26.768,-484.734,-181.573,41.500,-221.240,-2376.220
769,47784.98000,-62.164,72.854,-189.776,42.424,-484.877,-181.849,5.500,-250.240,-2332.220
770,47784.121000,-55.312,63.747,-197.683,79.458,-480.383,-176.603,-39.500,-260.240,-2270.220
771,47784.137000,-52.375,59.700,-199.660,103.912,-481.574,-176.050,-83.500,-341.240,-2219.220
772,47784.165000,-64.122,47.557,-192.741,134.159,-483.791,-170.676,-105.500,-361.240,-2149.220
773,47784.187000,-66.080,34.403,-182.857,156.489,-474.326,-166.160,-117.500,-246.240,-2063.220
774,47784.210000,-56.291,27.320,-185.822,188.657,-468.819,-162.797,-134.500,-217.240,-1978.220
775,47784.228000,-58.249,21.249,-192.741,206.128,-457.373,-161.151,-140.500,-317.240,-1881.220
776,47784.243000,-75.870,3.036,-196.695,225.680,-453.680,-162.486,-143.500,-309.240,-1765.220
777,47784.261000,-71.954,-3.036,-204.602,250.901,-443.277,-156.053,-148.500,-269.240,-1699.220
778,47784.288000,-66.080,-9.107,-209.544,267.526,-440.525,-157.335,-156.500,-302.240,-1586.220
779,47784.312000,-81.744,-18.213,-208.556,284.938,-431.985,-150.762,-152.500,-395.240,-1497.220
780,47784.324000,-101.323,-28.332,-213.498,291.742,-423.339,-152.861,-129.500,-332.240,-1412.220
781,47784.346000,-87.618,-27.320,-214.486,312.114,-411.921,-149.297,-93.500,-150.240,-1338.220
782,47784.373000,-75.870,-33.391,-221.405,330.564,-400.483,-147.668,-52.500,-144.240,-1271.220
783,47784.391000,-79.786,-39.462,-216.463,346.124,-395.791,-144.995,-19.500,-176.240,-1206.220
784,47784.416000,-85.660,-48.569,-201.637,359.716,-386.243,-144.263,-5.500,-100.240,-1139.220
785,47784.428000,-75.870,-55.652,-198.672,364.555,-376.611,-146.328,-11.500,23.760,-1075.220
786,47784.456000,-48.459,-56.664,-196.695,380.147,-366.110,-148.585,-15.500,7.760,-1043.220
787,47784.468000,-51.396,-62.735,-191.753,384.934,-360.353,-145.724,-29.500,-123.240,-974.220
788,47784.491000,-67.059,-73.866,-189.776,395.556,-348.844,-143.956,-60.500,-127.240,-890.220
789,47784.513000,-64.122,-73.866,-193.730,405.324,-346.998,-144.131,-86.500,-38.240,-790.220
790,47784.537000,-51.396,-73.866,-191.753,414.136,-338.367,-149.219,-81.500,3.760,-684.220
791,47784.560000,-52.375,-81.960,-196.695,423.789,-329.752,-146.447,-75.500,-52.240,-577.220
792,47784.582000,-58.249,-89.043,-204.602,421.761,-321.995,-146.420,-68.500,-71.240,-477.220
793,47784.605000,-51.396,-86.008,-197.683,431.582,-325.953,-146.589,-59.500,-95.240,-390.220
794,47784.623000,-52.375,-84.996,-194.718,434.472,-319.207,-147.633,-63.500,-118.240,-349.220
795,47784.642000,-69.017,-93.091,-204.602,437.407,-317.298,-148.671,-71.500,-119.240,-277.220
796,47784.656000,-66.080,-91.067,-207.568,428.539,-314.318,-146.549,-73.500,-9.240,-206.220
797,47784.680000,-56.291,-92.079,-202.625,436.454,-314.384,-151.611,-61.500,21.760,-147.220
798,47784.696000,-64.122,-93.091,-205.591,437.363,-312.461,-148.676,-50.500,-21.240,-99.220
799,47784.717000,-72.933,-96.126,-212.510,437.371,-311.493,-149.662,-35.500,19.760,-37.220
800,47784.740000,-72.933,-94.103,-208.556,430.547,-308.525,-152.498,-22.500,98.760,32.780
801,47784.760000,-69.996,-95.115,-209.544,439.423,-312.473,-154.619,-12.500,130.760,93.780
802,47784.776000,-67.059,-92.079,-213.498,436.506,-314.381,-154.565,-7.500,86.760,151.780
803,47784.797000,-72.933,-90.055,-214.486,428.678,-314.310,-154.427,2.500,91.760,187.780
804,47784.820000,-75.870,-93.091,-212.510,426.826,-318.158,-158.328,26.500,158.760,265.780
805,47784.837000,-71.954,-87.020,-216.463,427.814,-321.070,-157.357,50.500,200.760,332.780
806,47784.863000,-63.143,-86.008,-213.498,422.912,-320.058,-157.272,83.500,195.760,396.780
807,47784.886000,-54.333,-88.032,-208.556,416.073,-326.771,-154.189,97.500,116.760,456.780
808,47784.903000,-49.438,-83.984,-202.625,417.131,-331.615,-156.171,96.500,25.760,514.780
809,47784.926000,-51.396,-81.960,-200.649,411.287,-338.335,-154.091,83.500,56.760,586.780
810,47784.943000,-44.543,-73.866,-194.718,400.585,-341.138,-155.867,70.500,138.760,670.780
811,47784.961000,-34.753,-72.854,-190.764,389.901,-347.810,-156.655,58.500,173.760,763.780
812,47784.990000,-23.006,-69.818,-188.788,392.908,-353.641,-157.686,38.500,212.760,816.780
813,47785.8000,-12.237,-64.759,-183.846,380.337,-362.228,-161.391,10.500,229.760,932.780
814,47785.27000,-5.384,-56.664,-179.892,356.986,-376.525,-160.961,-27.500,256.760,1070.780
815,47785.46000,-2.447,-46.545,-181.869,347.350,-383.203,-165.705,-50.500,224.760,1228.780
816,47785.71000,-4.405,-39.462,-181.869,330.840,-394.660,-166.384,-76.500,212.760,1384.780
817,47785.96000,-10.279,-24.285,-177.915,316.346,-403.227,-172.025,-112.500,264.760,1546.780
818,47785.111000,-12.237,-9.107,-176.927,289.107,-412.648,-175.469,-139.500,319.760,1695.780
819,47785.128000,-22.027,-2.024,-191.753,278.501,-422.220,-179.208,-141.500,275.760,1832.780
820,47785.151000,-38.669,-6.071,-212.510,247.400,-433.539,-184.552,-143.500,304.760,1887.780
821,47785.171000,-35.732,32.379,-208.556,230.006,-444.013,-191.123,-160.500,300.760,2006.780
822,47785.193000,-62.164,38.451,-235.243,199.700,-448.575,-189.597,-171.500,201.760,2122.780
823,47785.212000,-64.122,53.628,-225.359,156.909,-459.784,-197.687,-118.500,234.760,2193.780
824,47785.228000,-56.291,62.735,-222.394,143.141,-457.728,-194.492,-109.500,239.760,2279.780
825,47785.260000,-72.933,71.842,-243.151,99.293,-469.900,-197.640,-121.500,66.760,2351.780
826,47785.278000,-100.344,89.043,-254.023,81.680,-469.739,-197.328,-88.500,-51.240,2369.780
827,47785.306000,-115.029,102.198,-250.069,45.547,-475.214,-197.667,-44.500,80.760,2400.780
828,47785.310000,-117.966,105.233,-256.988,27.881,-469.249,-197.362,-11.500,323.760,2410.780
829,47785.337000,-135.587,109.281,-275.768,-16.066,-464.972,-203.480,1.500,426.760,2400.780
830,47785.360000,-135.587,113.328,-256.000,-48.158,-459.828,-216.701,54.500,738.760,2317.780
831,47785.382000,-91.533,109.281,-248.093,-64.717,-450.961,-225.278,25.500,1054.760,2306.780
832,47785.402000,-56.291,122.435,-252.046,-93.062,-437.151,-233.653,-61.500,842.760,2225.780
833,47785.422000,-79.786,140.648,-251.058,-111.716,-428.274,-234.318,-140.500,337.760,2086.780
834,47785.440000,-111.113,142.672,-237.220,-135.167,-422.251,-238.832,-166.500,244.760,2011.780
835,47785.457000,-70.975,136.601,-224.371,-156.792,-411.414,-238.462,-198.500,292.760,2013.780
836,47785.480000,-60.207,148.743,-231.290,-185.249,-400.514,-238.956,-287.500,42.760,1946.780
837,47785.497000,-90.554,162.909,-236.232,-206.917,-388.711,-236.618,-301.500,-74.240,1883.780
838,47785.519000,-79.786,156.838,-223.382,-217.820,-382.814,-231.509,-284.500,-92.240,1898.780
839,47785.547000,-62.164,160.885,-218.440,-242.458,-372.922,-226.163,-300.500,-242.240,1903.780
840,47785.567000,-93.491,171.004,-230.301,-252.479,-364.135,-217.136,-307.500,-530.240,1865.780
841,47785.582000,-126.776,168.980,-231.290,-276.251,-353.291,-205.899,-231.500,-481.240,1868.780
842,47785.598000,-118.945,171.004,-217.452,-287.086,-343.518,-206.703,-160.500,-140.240,1855.780
843,47785.625000,-99.365,173.028,-208.556,-307.802,-328.822,-204.385,-125.500,66.760,1821.780
844,47785.645000,-95.449,158.862,-220.417,-320.690,-318.069,-200.232,-106.500,5.760,1803.780
845,47785.662000,-93.491,155.826,-226.347,-336.583,-303.421,-194.061,-150.500,-166.240,1743.780
846,47785.691000,-94.470,174.040,-218.440,-352.451,-285.869,-190.847,-172.500,-234.240,1687.780
847,47785.718000,-110.134,181.123,-207.568,-361.407,-275.150,-187.748,-177.500,-210.240,1580.780
848,47785.718000,-109.155,172.016,-202.625,-363.532,-260.623,-185.758,-135.500,-32.240,1488.780
849,47785.743000,-93.491,163.921,-205.591,-374.384,-252.787,-184.591,-140.500,49.760,1386.780
850,47785.763000,-76.849,172.016,-215.475,-387.324,-238.165,-179.457,-188.500,-40.240,1284.780
851,47785.786000,-92.512,167.968,-219.429,-387.369,-231.392,-180.449,-184.500,-142.240,1205.780
852,47785.808000,-107.197,162.909,-210.533,-405.237,-216.728,-173.259,-166.500,-101.240,1105.780
853,47785.831000,-99.365,160.885,-204.602,-412.236,-206.027,-170.194,-154.500,-85.240,989.780
854,47785.848000,-84.681,157.850,-205.591,-410.349,-200.242,-169.250,-146.500,-154.240,886.780
855,47785.871000,-90.554,155.826,-207.568,-415.409,-191.495,-164.248,-136.500,-373.240,823.780
856,47785.887000,-96.428,157.850,-202.625,-418.430,-191.474,-159.272,-143.500,-570.240,680.780
857,47785.913000,-116.008,153.802,-213.498,-420.544,-189.529,-151.362,-183.500,-705.240,541.780
858,47785.931000,-133.629,163.921,-224.371,-428.442,-185.590,-149.258,-212.500,-565.240,376.780
859,47785.948000,-141.461,162.909,-227.336,-431.447,-185.567,-145.267,-190.500,-269.240,219.780
860,47785.971000,-138.524,158.862,-231.290,-424.641,-182.728,-144.406,-153.500,-8.240,31.780
861,47786.0,-118.945,159.874,-229.313,-425.628,-183.688,-143.403,-127.500,86.760,-155.220
862,47786.22000,-108.176,156.838,-231.290,-423.644,-188.543,-142.448,-112.500,17.760,-332.220
863,47786.43000,-115.029,161.897,-229.313,-427.548,-191.411,-141.391,-102.500,-4.240,-412.220
864,47786.62000,-115.029,165.945,-223.382,-427.390,-201.081,-145.320,-65.500,51.760,-534.220
865,47786.80000,-115.029,167.968,-220.417,-419.631,-203.092,-140.533,-25.500,94.760,-641.220
866,47786.96000,-108.176,169.992,-218.440,-419.455,-212.761,-145.447,14.500,127.760,-725.220
867,47786.117000,-103.281,174.040,-217.452,-414.527,-218.611,-144.543,50.500,78.760,-802.220
868,47786.135000,-112.092,175.051,-222.394,-405.501,-231.262,-150.594,98.500,39.760,-881.220
869,47786.162000,-116.987,183.146,-218.440,-394.666,-239.099,-150.777,151.500,47.760,-943.220
870,47786.181000,-116.008,185.170,-212.510,-400.371,-245.811,-156.575,196.500,47.760,-989.220
871,47786.200000,-116.987,186.182,-202.625,-387.554,-254.633,-157.776,211.500,96.760,-1057.220
872,47786.227000,-101.323,178.087,-194.718,-378.571,-266.318,-161.859,212.500,99.760,-1101.220
873,47786.245000,-89.576,166.957,-200.649,-374.534,-276.025,-163.888,172.500,-14.240,-1207.220
874,47786.262000,-98.386,163.921,-200.649,-371.500,-288.629,-162.942,103.500,-68.240,-1316.220
875,47786.285000,-103.281,160.885,-205.591,-351.761,-305.252,-164.256,8.500,-96.240,-1404.220
876,47786.303000,-104.260,158.862,-217.452,-347.786,-310.124,-165.306,-75.500,-178.240,-1492.220
877,47786.320000,-105.239,158.862,-224.371,-336.931,-329.574,-160.553,-130.500,-316.240,-1621.220
878,47786.348000,-114.050,162.909,-230.301,-317.253,-347.169,-157.927,-152.500,-403.240,-1745.220
879,47786.363000,-120.902,164.933,-238.208,-305.456,-358.887,-155.168,-175.500,-427.240,-1848.220
880,47786.388000,-120.902,171.004,-241.174,-281.854,-381.356,-150.637,-185.500,-423.240,-1947.220
881,47786.408000,-125.797,180.111,-245.127,-267.104,-395.036,-147.929,-159.500,-388.240,-1976.220
882,47786.431000,-125.797,184.158,-244.139,-248.466,-409.721,-143.319,-100.500,-305.240,-2009.220
883,47786.446000,-123.839,179.099,-247.104,-237.648,-417.559,-142.517,-29.500,-218.240,-2027.220
884,47786.468000,-120.902,171.004,-247.104,-212.169,-431.339,-138.029,36.500,-180.240,-2030.220
885,47786.486000,-116.987,157.850,-237.220,-177.779,-451.000,-136.646,95.500,-180.240,-2011.220
886,47786.509000,-124.818,149.755,-237.220,-163.005,-457.904,-138.868,151.500,-197.240,-1989.220
887,47786.535000,-123.839,136.601,-227.336,-133.526,-469.778,-140.360,209.500,-118.240,-1982.220
888,47786.560000,-114.050,123.447,-212.510,-117.869,-471.856,-139.650,236.500,43.760,-1954.220
889,47786.576000,-107.197,106.245,-208.556,-85.412,-484.723,-143.163,250.500,77.760,-1941.220
890,47786.595000,-103.281,106.245,-197.683,-70.744,-481.954,-144.410,248.500,88.760,-1920.220
891,47786.617000,-89.576,91.067,-194.718,-35.473,-489.047,-144.042,245.500,105.760,-1863.220
892,47786.623000,-92.512,72.854,-208.556,-29.550,-491.033,-146.113,213.500,-36.240,-1848.220
893,47786.652000,-96.428,73.866,-214.486,4.621,-496.188,-139.820,154.500,-199.240,-1839.220
894,47786.685000,-99.365,58.688,-213.498,35.908,-499.378,-137.417,131.500,-401.240,-1803.220
895,47786.700000,-104.260,36.427,-218.440,56.265,-497.640,-127.934,40.500,-674.240,-1797.220
896,47786.725000,-115.029,43.510,-226.347,81.560,-504.655,-116.560,-88.500,-911.240,-1855.220
897,47786.738000,-135.587,41.486,-218.440,99.935,-503.868,-105.073,-150.500,-931.240,-1872.220
898,47786.756000,-137.545,29.344,-204.602,134.000,-501.286,-96.818,-163.500,-821.240,-1897.220
899,47786.777000,-124.818,26.308,-202.625,145.559,-494.628,-90.140,-183.500,-546.240,-1974.220
900,47786.800000,-125.797,21.249,-198.672,177.736,-492.024,-85.790,-182.500,-328.240,-2054.220
901,47786.817000,-110.134,10.119,-190.764,213.868,-480.742,-88.411,-155.500,-33.240,-2079.220
902,47786.840000,-87.618,1.012,-189.776,231.392,-473.164,-87.746,-146.500,115.760,-2048.220
903,47786.862000,-75.870,-5.059,-191.753,262.543,-454.100,-89.303,-133.500,58.760,-1961.220
904,47786.882000,-69.017,-17.202,-179.892,277.255,-452.296,-92.519,-113.500,-36.240,-1843.220
905,47786.905000,-68.038,-28.332,-175.938,305.402,-435.144,-89.099,-120.500,-110.240,-1721.220
906,47786.922000,-68.038,-38.451,-179.892,316.067,-424.601,-89.300,-115.500,-115.240,-1592.220
907,47786.950000,-70.975,-50.593,-177.915,340.361,-408.378,-88.765,-82.500,-59.240,-1522.220
908,47786.965000,-58.249,-59.700,-171.985,355.875,-394.978,-88.071,-49.500,81.760,-1387.220
909,47786.971000,-38.669,-63.747,-172.973,369.555,-389.296,-90.288,-20.500,111.760,-1244.220
910,47787.1000,-26.922,-72.854,-167.042,386.004,-374.939,-87.643,-10.500,-48.240,-1080.220
911,47787.22000,-35.732,-84.996,-170.008,390.887,-372.081,-88.717,-28.500,-235.240,-910.220
912,47787.45000,-42.585,-91.067,-167.042,401.519,-365.411,-84.975,-41.500,-328.240,-735.220
913,47787.67000,-53.354,-95.115,-169.019,406.324,-361.588,-82.111,-57.500,-356.240,-562.220
914,47787.85000,-69.996,-99.162,-170.996,410.107,-356.792,-77.261,-50.500,-260.240,-416.220
915,47787.107000,-74.891,-100.174,-170.996,414.055,-356.825,-79.300,-38.500,-163.240,-354.220
916,47787.125000,-75.870,-104.221,-173.961,418.895,-351.066,-79.392,-20.500,19.760,-254.220
917,47787.146000,-78.807,-103.209,-181.869,422.843,-351.099,-81.431,-12.500,120.760,-181.220
918,47787.165000,-80.765,-110.292,-184.834,416.937,-347.176,-81.331,-10.500,143.760,-115.220
919,47787.187000,-80.765,-112.316,-184.834,416.963,-348.143,-82.315,-26.500,119.760,-59.220
920,47787.215000,-86.639,-111.304,-190.764,421.890,-348.185,-84.371,-39.500,70.760,-10.220
921,47787.230000,-94.470,-111.304,-191.753,421.942,-348.182,-87.325,-34.500,60.760,19.780
922,47787.250000,-99.365,-112.316,-191.753,417.050,-350.074,-86.252,-23.500,50.760,42.780
923,47787.272000,-101.323,-113.328,-193.730,418.037,-349.114,-87.255,-23.500,59.760,49.780
924,47787.292000,-98.386,-110.292,-193.730,425.961,-352.084,-91.330,-22.500,51.760,57.780
925,47787.315000,-95.449,-109.281,-188.788,418.123,-349.109,-92.179,-25.500,43.760,77.780
926,47787.335000,-84.681,-111.304,-184.834,414.236,-351.976,-92.107,-36.500,21.760,107.780
927,47787.356000,-76.849,-107.257,-183.846,419.129,-353.956,-91.207,-58.500,-5.240,144.780
928,47787.378000,-72.933,-102.198,-183.846,419.259,-356.852,-97.112,-56.500,-5.240,208.780
929,47787.397000,-69.996,-98.150,-181.869,408.391,-352.889,-92.987,-52.500,23.760,281.780
930,47787.430000,-65.101,-97.138,-181.869,401.604,-357.663,-93.846,-57.500,70.760,371.780
931,47787.444000,-66.080,-92.079,-183.846,409.538,-367.407,-94.959,-46.500,191.760,485.780
932,47787.461000,-55.312,-84.996,-185.822,398.887,-368.271,-100.676,-34.500,261.760,614.780
933,47787.478000,-27.901,-78.925,-191.753,381.406,-374.878,-104.297,1.500,218.760,678.780
934,47787.503000,-30.837,-70.830,-202.625,378.542,-384.527,-103.251,46.500,115.760,796.780
935,47787.530000,-64.122,-66.783,-205.591,365.018,-394.071,-107.922,89.500,290.760,922.780
936,47787.538000,-79.786,-66.783,-197.683,354.342,-393.968,-112.656,104.500,592.760,1021.780
937,47787.556000,-70.975,-67.794,-205.591,336.948,-404.443,-119.227,111.500,745.760,1100.780
938,47787.583000,-50.417,-65.771,-199.660,333.200,-411.173,-125.060,60.500,757.760,1183.780
939,47787.602000,-40.627,-56.664,-193.730,315.839,-415.839,-136.561,1.500,709.760,1278.780
940,47787.622000,-42.585,-51.605,-194.718,297.440,-425.338,-142.131,-44.500,691.760,1348.780
941,47787.631000,-42.585,-41.486,-193.730,278.045,-429.022,-149.659,-61.500,686.760,1370.780
942,47787.658000,-59.228,-31.368,-195.707,255.817,-432.673,-163.044,-96.500,756.760,1428.780
943,47787.681000,-59.228,-27.320,-196.695,244.302,-438.361,-172.678,-139.500,921.760,1525.780
944,47787.701000,-19.090,-21.249,-200.649,215.104,-441.957,-179.048,-206.500,700.760,1605.780
945,47787.723000,-23.985,-3.036,-210.533,206.481,-450.577,-184.792,-236.500,353.760,1661.780
946,47787.746000,-71.954,9.107,-215.475,179.239,-452.255,-192.184,-184.500,438.760,1763.780
947,47787.771000,-86.639,16.190,-206.579,151.055,-457.794,-199.554,-137.500,596.760,1869.780
948,47787.786000,-87.618,25.296,-232.278,132.550,-455.684,-205.136,-120.500,538.760,1972.780
949,47787.800000,-95.449,37.439,-236.232,100.407,-458.286,-211.456,-95.500,495.760,2058.780
950,47787.817000,-91.533,47.557,-231.290,83.860,-460.066,-215.099,-84.500,503.760,2087.780
951,47787.850000,-83.702,52.617,-234.255,44.902,-458.732,-225.240,-98.500,489.760,2115.780
952,47787.867000,-85.660,59.700,-245.127,25.340,-455.649,-226.866,-132.500,368.760,2095.780
953,47787.900000,-87.618,63.747,-245.127,-5.895,-452.457,-232.224,-154.500,256.760,2041.780
954,47787.913000,-81.744,66.783,-243.151,-18.607,-451.373,-232.985,-200.500,226.760,1994.780
955,47787.932000,-96.428,73.866,-248.093,-47.972,-446.267,-234.440,-256.500,230.760,1920.780
956,47787.955000,-99.365,70.830,-248.093,-81.251,-437.254,-237.800,-269.500,376.760,1855.780
957,47787.983000,-79.786,66.783,-248.093,-90.067,-434.270,-238.632,-308.500,443.760,1800.780
958,47787.983000,-69.017,82.972,-247.104,-119.451,-421.422,-243.049,-343.500,408.760,1696.780
959,47788.11000,-73.912,97.138,-245.127,-127.297,-419.416,-242.913,-400.500,351.760,1653.780
960,47788.41000,-59.228,97.138,-232.278,-161.547,-407.490,-248.227,-424.500,422.760,1587.780
961,47788.56000,-35.732,99.162,-236.232,-171.447,-396.761,-247.080,-479.500,406.760,1572.780
962,47788.71000,-37.690,119.399,-243.151,-193.063,-386.891,-246.709,-552.500,148.760,1515.780
963,47788.88000,-55.312,132.553,-239.197,-214.765,-375.090,-242.401,-575.500,-14.240,1507.780
964,47788.111000,-55.312,135.589,-233.266,-227.547,-372.075,-240.210,-574.500,60.760,1529.780
965,47788.128000,-39.648,136.601,-233.266,-247.363,-358.360,-232.984,-565.500,7.760,1549.780
966,47788.153000,-44.543,151.779,-242.162,-264.129,-351.441,-228.758,-568.500,-231.240,1532.780
967,47788.173000,-61.185,166.957,-234.255,-282.982,-339.671,-219.578,-553.500,-295.240,1536.780
968,47788.201000,-66.080,166.957,-222.394,-288.976,-333.818,-215.541,-512.500,-252.240,1555.780
969,47788.216000,-66.080,168.980,-222.394,-308.791,-320.103,-208.315,-478.500,-158.240,1550.780
970,47788.233000,-71.954,166.957,-226.347,-322.639,-313.211,-203.156,-437.500,-124.240,1547.780
971,47788.255000,-78.807,174.040,-229.313,-340.507,-298.547,-195.966,-395.500,-103.240,1555.780
972,47788.276000,-93.491,174.040,-228.324,-354.478,-280.047,-189.834,-329.500,-87.240,1591.780
973,47788.302000,-111.113,167.968,-231.290,-360.464,-269.354,-188.756,-226.500,3.760,1602.780
974,47788.325000,-104.260,169.992,-226.347,-372.410,-248.932,-187.584,-150.500,57.760,1570.780
975,47788.370000,-101.323,171.004,-226.347,-378.325,-245.978,-186.498,-103.500,-2.240,1482.780
976,47788.383000,-99.365,177.075,-226.347,-384.400,-227.546,-184.443,-91.500,-21.240,1424.780
977,47788.403000,-88.597,179.099,-228.324,-398.196,-218.715,-183.225,-88.500,-76.240,1286.780
978,47788.405000,-75.870,177.075,-221.405,-402.364,-206.111,-175.291,-122.500,-150.240,1137.780
979,47788.421000,-62.164,174.040,-213.498,-411.294,-198.295,-172.188,-189.500,-258.240,1016.780
980,47788.448000,-66.080,167.968,-214.486,-415.365,-192.461,-166.217,-242.500,-367.240,906.780
981,47788.463000,-68.038,160.885,-212.510,-423.308,-183.685,-164.117,-271.500,-388.240,818.780
982,47788.486000,-58.249,163.921,-207.568,-423.368,-184.656,-160.177,-285.500,-413.240,732.780
983,47788.508000,-59.228,165.945,-210.533,-424.556,-178.852,-151.303,-267.500,-469.240,661.780
984,47788.531000,-80.765,163.921,-219.429,-433.493,-172.004,-147.215,-246.500,-456.240,581.780
985,47788.551000,-88.597,164.933,-220.417,-427.727,-168.191,-143.384,-178.500,-316.240,541.780
986,47788.571000,-86.639,167.968,-216.463,-435.626,-160.381,-143.253,-107.500,-162.240,447.780
987,47788.588000,-85.660,165.945,-218.440,-434.674,-159.423,-142.287,-43.500,-75.240,337.780
988,47788.606000,-85.660,164.933,-223.382,-436.596,-161.339,-143.235,6.500,-49.240,219.780
989,47788.628000,-88.597,162.909,-223.382,-429.799,-159.469,-141.388,38.500,-39.240,81.780
990,47788.642000,-99.365,164.933,-222.394,-437.523,-161.328,-146.172,66.500,36.760,-73.220
991,47788.670000,-105.239,162.909,-221.405,-435.627,-158.445,-144.240,90.500,162.760,-242.220
992,47788.690000,-100.344,161.897,-216.463,-433.565,-162.329,-148.210,95.500,282.760,-406.220
993,47788.712000,-89.576,158.862,-207.568,-430.577,-166.224,-149.242,91.500,301.760,-489.220
994,47788.745000,-92.512,159.874,-209.544,-424.548,-175.948,-153.276,82.500,284.760,-675.220
995,47788.772000,-100.344,168.980,-203.614,-419.506,-184.695,-157.292,91.500,355.760,-858.220
996,47788.786000,-100.344,171.004,-198.672,-422.363,-187.567,-160.192,94.500,481.760,-980.220
997,47788.800000,-88.597,172.016,-202.625,-412.367,-199.259,-166.262,74.500,485.760,-1086.220
998,47788.820000,-84.681,175.051,-205.591,-407.413,-206.076,-166.341,46.500,387.760,-1184.220
999,47788.828000,-85.660,179.099,-206.579,-402.344,-217.725,-170.355,22.500,260.760,-1287.220
1000,47788.856000,-88.597,183.146,-211.521,-397.345,-227.443,-171.417,-4.500,167.760,-1392.220
