Sample, Time, ACCX, ACCY, ACCZ, MAGX, MAGY, MAGZ, GYRX, GYRY, GYRZ
0,47827.434000,-38.669,22.261,-239.197,-28.309,-370.879,-335.291,3.500,-8.240,1.780
1,47827.462000,-38.669,23.273,-240.185,-25.348,-371.872,-336.326,-0.500,-14.240,0.780
2,47827.476000,-37.690,23.273,-240.185,-35.176,-372.753,-333.198,-4.500,-27.240,-2.220
3,47827.489000,-36.711,23.273,-242.162,-32.223,-370.843,-335.221,-9.500,-38.240,-5.220
4,47827.519000,-40.627,23.273,-241.174,-27.304,-373.790,-335.305,-11.500,-24.240,-5.220
5,47827.533000,-41.606,23.273,-243.151,-35.194,-368.883,-334.187,-12.500,-12.240,-5.220
6,47827.555000,-38.669,24.285,-242.162,-33.193,-373.738,-334.216,-12.500,-4.240,-7.220
7,47827.578000,-37.690,24.285,-243.151,-19.494,-371.926,-335.445,-13.500,-18.240,-8.220
8,47827.593000,-38.669,24.285,-246.116,-31.271,-371.822,-333.268,-14.500,-19.240,-5.220
9,47827.611000,-39.648,23.273,-244.139,-34.267,-370.830,-330.263,-9.500,-11.240,-4.220
10,47827.639000,-39.648,24.285,-243.151,-28.283,-371.845,-336.274,-3.500,-5.240,-0.220
11,47827.655000,-38.669,25.296,-246.116,-24.438,-373.821,-331.418,-2.500,-3.240,3.780
12,47827.673000,-37.690,24.285,-245.127,-27.322,-371.855,-335.307,-1.500,-17.240,2.780
13,47827.695000,-39.648,23.273,-245.127,-27.374,-371.858,-332.353,3.500,-17.240,3.780
14,47827.715000,-39.648,26.308,-245.127,-35.167,-371.785,-334.184,6.500,-11.240,4.780
15,47827.743000,-40.627,23.273,-245.127,-32.249,-373.748,-332.264,10.500,-4.240,5.780
16,47827.780000,-39.648,23.273,-243.151,-33.220,-368.900,-335.206,9.500,2.760,5.780
17,47827.794000,-40.627,26.308,-243.151,-30.309,-371.831,-332.301,11.500,11.760,1.780
18,47827.808000,-38.669,24.285,-244.139,-30.258,-371.828,-335.255,8.500,-1.240,-2.220
19,47827.811000,-41.606,23.273,-246.116,-28.248,-375.715,-336.271,5.500,0.760,-8.220
20,47827.834000,-39.648,24.285,-245.127,-34.163,-370.824,-336.172,10.500,1.760,-8.220
21,47827.856000,-41.606,22.261,-246.116,-26.404,-370.900,-332.371,15.500,-14.240,-11.220
22,47827.888000,-41.606,21.249,-247.104,-27.349,-367.017,-336.297,17.500,-19.240,-10.220
23,47827.908000,-40.627,23.273,-244.139,-27.366,-370.890,-333.338,25.500,-10.240,-8.220
24,47827.930000,-39.648,22.261,-244.139,-24.325,-374.782,-337.325,32.500,2.760,-5.220
25,47827.945000,-40.627,22.261,-244.139,-32.231,-373.747,-333.249,31.500,-13.240,-7.220
26,47827.970000,-38.669,23.273,-242.162,-26.378,-371.866,-333.355,25.500,-27.240,-12.220
27,47827.991000,-41.606,23.273,-243.151,-30.283,-374.734,-332.298,22.500,-28.240,-15.220
28,47828.10000,-41.606,22.261,-242.162,-23.459,-373.829,-331.435,22.500,-19.240,-15.220
29,47828.19000,-37.690,21.249,-240.185,-22.429,-373.835,-334.407,21.500,-20.240,-15.220
30,47828.33000,-41.606,22.261,-240.185,-22.446,-375.772,-332.435,14.500,-21.240,-12.220
31,47828.65000,-42.585,20.237,-239.197,-30.258,-371.828,-335.255,14.500,-11.240,-9.220
32,47828.74000,-39.648,19.225,-242.162,-30.249,-372.796,-335.254,16.500,7.760,-5.220
33,47828.101000,-39.648,20.237,-242.162,-24.404,-371.883,-334.374,14.500,-5.240,-7.220
34,47828.144000,-40.627,21.249,-239.197,-25.408,-374.779,-331.400,9.500,-23.240,-10.220
35,47828.158000,-43.564,22.261,-241.174,-22.446,-375.772,-332.435,2.500,-24.240,-11.220
36,47828.180000,-41.606,20.237,-243.151,-25.451,-373.814,-329.431,1.500,-15.240,-20.220
37,47828.184000,-42.585,20.237,-243.151,-23.424,-377.699,-331.431,0.500,-18.240,-27.220
38,47828.211000,-41.606,20.237,-245.127,-29.331,-371.840,-332.318,-2.500,-14.240,-32.220
39,47828.239000,-42.585,20.237,-245.127,-28.300,-373.782,-334.303,-1.500,-9.240,-32.220
40,47828.254000,-39.648,19.225,-243.151,-25.372,-376.713,-332.382,4.500,4.760,-28.220
41,47828.274000,-39.648,21.249,-244.139,-20.472,-373.853,-334.441,9.500,-1.240,-22.220
42,47828.290000,-37.690,21.249,-242.162,-19.493,-377.734,-332.485,8.500,-14.240,-16.220
43,47828.310000,-39.648,19.225,-242.162,-17.536,-377.751,-332.520,6.500,-24.240,-16.220
44,47828.338000,-43.564,19.225,-242.162,-23.408,-373.827,-334.389,5.500,-13.240,-17.220
45,47828.364000,-41.606,20.237,-241.174,-24.438,-373.821,-331.418,2.500,6.760,-18.220
46,47828.373000,-39.648,19.225,-242.162,-25.347,-375.744,-334.353,1.500,-0.240,-21.220
47,47828.390000,-38.669,19.225,-241.174,-21.519,-375.784,-329.498,-2.500,-10.240,-22.220
48,47828.418000,-38.669,21.249,-242.162,-16.584,-374.858,-332.540,-7.500,-11.240,-21.220
49,47828.436000,-39.648,21.249,-242.162,-23.477,-373.830,-330.450,-7.500,-4.240,-15.220
50,47828.457000,-38.669,21.249,-242.162,-17.545,-374.848,-333.508,-2.500,9.760,-11.220
51,47828.474000,-38.669,20.237,-243.151,-24.403,-375.754,-332.401,0.500,14.760,-5.220
52,47828.496000,-37.690,21.249,-243.151,-21.416,-375.778,-335.407,-1.500,5.760,-3.220
53,47828.519000,-39.648,19.225,-243.151,-21.503,-371.911,-332.456,1.500,5.760,2.780
54,47828.538000,-39.648,17.202,-242.162,-21.390,-374.809,-337.377,6.500,17.760,7.780
55,47828.565000,-39.648,17.202,-242.162,-21.503,-373.847,-331.470,10.500,34.760,11.780
56,47828.581000,-38.669,18.213,-241.174,-24.430,-372.852,-332.404,4.500,29.760,17.780
57,47828.604000,-39.648,19.225,-241.174,-25.347,-373.808,-335.340,1.500,21.760,19.780
58,47828.626000,-38.669,19.225,-240.185,-23.382,-370.921,-337.347,-4.500,19.760,20.780
59,47828.646000,-38.669,22.261,-241.174,-21.442,-374.812,-334.423,-8.500,14.760,18.780
60,47828.666000,-36.711,22.261,-242.162,-20.533,-370.953,-332.475,-16.500,-2.240,10.780
61,47828.681000,-40.627,20.237,-243.151,-27.322,-371.855,-335.307,-21.500,-14.240,0.780
62,47828.695000,-45.522,20.237,-243.151,-26.352,-372.832,-334.338,-19.500,26.760,-1.220
63,47828.729000,-40.627,20.237,-245.127,-23.355,-375.759,-336.357,-15.500,48.760,3.780
64,47828.744000,-36.711,20.237,-244.139,-24.395,-372.850,-334.373,-11.500,31.760,5.780
65,47828.765000,-38.669,20.237,-245.127,-24.369,-373.817,-335.357,-11.500,14.760,6.780
66,47828.788000,-38.669,21.249,-245.127,-23.390,-373.826,-335.374,-9.500,4.760,10.780
67,47828.804000,-39.648,22.261,-245.127,-23.381,-374.793,-335.373,-8.500,3.760,11.780
68,47828.827000,-40.627,21.249,-245.127,-27.287,-373.789,-336.290,-6.500,4.760,10.780
69,47828.856000,-39.648,21.249,-246.116,-32.179,-373.745,-336.203,-7.500,12.760,10.780
70,47828.876000,-39.648,21.249,-245.127,-23.400,-370.922,-336.362,-4.500,14.760,10.780
71,47828.898000,-37.690,20.237,-247.104,-23.391,-371.890,-336.361,-4.500,4.760,7.780
72,47828.913000,-37.690,21.249,-244.139,-29.253,-372.804,-336.256,-2.500,3.760,6.780
73,47828.933000,-37.690,22.261,-244.139,-31.288,-369.887,-333.270,0.500,17.760,14.780
74,47828.959000,-37.690,20.237,-245.127,-17.546,-372.913,-334.494,2.500,26.760,17.780
75,47828.971000,-35.732,22.261,-245.127,-25.400,-369.939,-334.359,0.500,19.760,17.780
76,47828.999000,-34.753,21.249,-243.151,-25.287,-370.901,-340.266,-0.500,-3.240,14.780
77,47829.36000,-36.711,20.237,-243.151,-23.391,-371.890,-336.361,-3.500,-10.240,13.780
78,47829.50000,-39.648,20.237,-245.127,-20.368,-373.847,-340.350,-0.500,17.760,14.780
79,47829.54000,-37.690,22.261,-242.162,-29.280,-367.966,-337.246,1.500,22.760,18.780
80,47829.76000,-36.711,20.237,-242.162,-21.417,-368.035,-339.354,-5.500,7.760,16.780
81,47829.99000,-35.732,22.261,-244.139,-25.383,-369.938,-335.343,-8.500,-7.240,16.780
82,47829.121000,-38.669,21.249,-244.139,-25.305,-370.902,-339.282,-10.500,-7.240,15.780
83,47829.135000,-39.648,21.249,-244.139,-28.249,-371.843,-338.244,-7.500,7.760,16.780
84,47829.158000,-38.669,20.237,-243.151,-27.262,-368.948,-340.234,-9.500,15.760,13.780
85,47829.175000,-35.732,21.249,-244.139,-26.327,-367.992,-338.282,-13.500,0.760,11.780
86,47829.198000,-38.669,20.237,-245.127,-24.380,-365.106,-339.305,-10.500,-0.240,9.780
87,47829.220000,-37.690,21.249,-244.139,-30.198,-366.986,-341.168,-6.500,18.760,9.780
88,47829.243000,301.033,231.715,37.560,-21.434,-369.972,-337.382,-6.500,15.760,5.780
89,47829.260000,-82.723,-17.202,-229.313,-36.161,-379.520,-329.235,-137.500,-1207.240,121.780
90,47829.285000,-110.134,31.368,-240.185,-37.355,-384.363,-314.441,-289.500,-648.240,15.780
91,47829.303000,-88.597,13.154,-243.151,-42.151,-387.217,-318.291,-84.500,-225.240,-49.220
92,47829.320000,-69.017,37.439,-245.127,-42.145,-376.569,-324.210,39.500,379.760,-75.220
93,47829.334000,-62.164,32.379,-258.965,-43.012,-375.586,-331.087,209.500,680.760,-47.220
94,47829.353000,-4.405,17.202,-252.046,-35.152,-364.041,-339.115,339.500,848.760,-40.220
95,47829.400000,5.384,44.522,-243.151,-34.086,-365.981,-343.070,-250.500,116.760,24.780
96,47829.423000,-55.312,54.640,-265.884,-32.242,-366.973,-336.210,-90.500,-275.240,-64.220
97,47829.431000,-45.522,19.225,-262.919,-36.138,-368.872,-336.139,-3.500,-67.240,10.780
98,47829.445000,-46.501,30.356,-259.954,-33.194,-365.994,-338.163,5.500,-14.240,-9.220
99,47829.470000,-42.585,28.332,-256.000,-30.275,-369.894,-335.257,23.500,32.760,-12.220
100,47829.489000,-26.922,25.296,-248.093,-30.285,-366.990,-336.245,51.500,108.760,-14.220
101,47829.509000,-30.837,25.296,-247.104,-28.231,-371.842,-339.229,44.500,22.760,-17.220
102,47829.534000,-33.774,26.308,-245.127,-35.134,-367.911,-338.127,42.500,-24.240,-11.220
103,47829.556000,-36.711,25.296,-243.151,-31.210,-370.850,-337.208,39.500,-41.240,-2.220
104,47829.574000,-39.648,23.273,-243.151,-32.189,-368.906,-338.178,39.500,-26.240,-3.220
105,47829.589000,-36.711,24.285,-241.174,-32.155,-368.904,-340.147,44.500,25.760,-8.220
106,47829.619000,-32.795,24.285,-240.185,-34.138,-365.984,-340.115,40.500,31.760,-7.220
107,47829.625000,-33.774,23.273,-239.197,-31.219,-369.883,-337.209,30.500,6.760,-3.220
108,47829.652000,-32.795,25.296,-239.197,-29.176,-369.896,-342.168,27.500,-7.240,-4.220
109,47829.674000,-36.711,22.261,-240.185,-26.352,-370.897,-335.325,21.500,-23.240,0.780
110,47829.696000,-37.690,23.273,-239.197,-36.060,-369.835,-340.077,18.500,-7.240,0.780
111,47829.714000,-13.216,-32.379,-232.278,-37.203,-368.868,-331.198,-666.500,-185.240,348.780
112,47829.736000,-160.061,-30.356,-254.023,-38.152,-383.376,-325.257,37.500,-708.240,125.780
113,47829.770000,-123.839,-56.664,-249.081,-35.150,-371.784,-335.169,171.500,662.760,-149.220
114,47829.789000,-44.543,-16.190,-240.185,-29.202,-368.929,-341.184,-32.500,905.760,-219.220
115,47829.803000,-22.027,35.415,-246.116,-25.203,-361.217,-350.124,104.500,747.760,-119.220
116,47829.814000,58.249,12.142,-232.278,-29.171,-355.377,-350.060,-191.500,-22.240,155.780
117,47829.836000,-32.795,72.854,-252.046,-37.023,-362.082,-344.991,-236.500,-388.240,-44.220
118,47829.861000,-51.396,40.474,-258.965,-30.164,-366.984,-343.138,-63.500,-261.240,-14.220
119,47829.876000,-42.585,20.237,-258.965,-31.116,-367.941,-344.104,-32.500,-119.240,-9.220
120,47829.899000,-48.459,32.379,-260.942,-37.039,-365.955,-342.033,-6.500,0.760,-13.220
121,47829.916000,-35.732,25.296,-254.023,-38.936,-364.966,-345.939,33.500,128.760,-12.220
122,47829.939000,-24.964,25.296,-247.104,-33.117,-363.086,-344.075,32.500,61.760,-17.220
123,47829.959000,-25.943,27.320,-248.093,-37.022,-364.018,-344.005,29.500,-10.240,-7.220
124,47829.983000,-26.922,26.308,-246.116,-32.174,-361.161,-343.109,27.500,-56.240,-1.220
125,47830.12000,-33.774,25.296,-247.104,-27.220,-364.106,-345.162,25.500,-71.240,-2.220
126,47830.25000,-39.648,25.296,-246.116,-26.294,-364.118,-342.225,31.500,-30.240,-4.220
127,47830.39000,-35.732,24.285,-244.139,-24.250,-364.131,-347.184,39.500,28.760,-2.220
128,47830.64000,-29.859,20.237,-243.151,-23.349,-365.112,-342.276,38.500,25.760,0.780
129,47830.84000,-30.837,20.237,-241.174,-32.173,-365.033,-341.136,29.500,-13.240,1.780
130,47830.101000,-31.816,22.261,-238.208,-26.275,-367.989,-341.237,24.500,-32.240,3.780
131,47830.124000,-34.753,22.261,-241.174,-28.251,-362.164,-343.177,18.500,-24.240,1.780
132,47830.156000,-34.753,21.249,-240.185,-28.260,-363.133,-342.192,16.500,12.760,1.780
133,47830.175000,-31.816,23.273,-237.220,-23.367,-365.113,-341.292,9.500,22.760,4.780
134,47830.189000,-29.859,21.249,-238.208,-20.415,-361.267,-344.302,3.500,11.760,6.780
135,47830.211000,-30.837,22.261,-240.185,-31.248,-359.237,-341.159,-5.500,-16.240,8.780
136,47830.229000,-33.774,21.249,-240.185,-26.224,-364.114,-346.164,-6.500,-13.240,10.780
137,47830.249000,-33.774,22.261,-242.162,-27.299,-359.271,-343.198,-8.500,-2.240,9.780
138,47830.271000,175.725,176.063,-199.660,-44.091,-385.262,-320.228,310.500,-2394.240,702.780
139,47830.290000,-85.660,-69.818,-218.440,-47.180,-396.859,-305.393,-434.500,-1784.240,237.780
140,47830.313000,-162.998,-17.202,-250.069,-51.093,-400.695,-303.350,-95.500,-386.240,-52.220
141,47830.335000,-147.335,-2.024,-261.931,-56.038,-394.846,-303.269,73.500,756.760,-224.220
142,47830.355000,-118.945,51.605,-260.942,-47.063,-379.430,-321.166,316.500,1165.760,-111.220
143,47830.370000,-53.354,42.498,-251.058,-41.055,-373.668,-332.108,297.500,1551.760,-41.220
144,47830.393000,10.279,18.213,-246.116,-37.976,-359.168,-347.931,105.500,1020.760,-22.220
145,47830.415000,16.153,19.225,-251.058,-38.989,-359.161,-345.944,-198.500,228.760,-44.220
146,47830.433000,-3.426,68.806,-259.954,-37.023,-362.082,-344.991,-77.500,-266.240,-52.220
147,47830.455000,-41.606,44.522,-269.838,-38.027,-364.979,-342.017,-31.500,-289.240,14.780
148,47830.478000,-62.164,28.332,-267.861,-38.078,-366.917,-338.076,12.500,-35.240,1.780
149,47830.493000,-53.354,38.451,-258.965,-42.893,-365.901,-342.914,56.500,140.760,-4.220
150,47830.521000,-31.816,33.391,-252.046,-45.890,-362.974,-340.896,63.500,93.760,-20.220
151,47830.540000,-23.985,31.368,-245.127,-42.903,-361.062,-344.888,59.500,31.760,-22.220
152,47830.578000,-27.901,30.356,-244.139,-42.937,-361.064,-342.919,44.500,-77.240,-16.220
153,47830.596000,-34.753,28.332,-242.162,-42.902,-362.997,-343.902,40.500,-90.240,-9.220
154,47830.596000,-38.669,27.320,-240.185,-40.053,-363.029,-339.030,44.500,-30.240,-10.220
155,47830.621000,-33.774,25.296,-238.208,-36.036,-363.059,-345.008,46.500,20.760,-16.220
156,47830.639000,-29.859,24.285,-236.232,-37.101,-363.055,-340.066,37.500,26.760,-24.220
157,47830.666000,-30.837,26.308,-237.220,-41.932,-363.975,-342.933,20.500,-5.240,-26.220
158,47830.673000,-32.795,28.332,-240.185,-40.036,-364.964,-339.028,9.500,-28.240,-26.220
159,47830.699000,-34.753,28.332,-242.162,-38.962,-365.935,-343.968,7.500,-24.240,-25.220
160,47830.716000,-33.774,29.344,-240.185,-40.028,-362.060,-341.000,7.500,-3.240,-26.220
161,47830.738000,367.602,401.708,-51.398,-44.893,-364.917,-340.911,5.500,13.760,-26.220
162,47830.761000,-33.774,1.012,-212.510,-44.994,-376.538,-329.082,485.500,-1654.240,367.780
163,47830.778000,-134.608,-10.119,-242.162,-48.040,-385.229,-318.189,-327.500,-1030.240,46.780
164,47830.804000,-99.365,-9.107,-252.046,-44.126,-383.328,-319.245,-59.500,-40.240,-37.220
165,47830.821000,-100.344,26.308,-262.919,-50.961,-373.586,-325.042,99.500,643.760,-189.220
166,47830.843000,-34.753,44.522,-254.023,-40.095,-367.871,-334.101,297.500,1106.760,-83.220
167,47830.870000,44.543,43.510,-233.266,-39.942,-360.119,-346.911,19.500,722.760,56.780
168,47830.898000,-14.195,48.569,-255.012,-40.929,-359.143,-346.895,-102.500,263.760,6.780
169,47830.904000,-23.985,29.344,-263.907,-42.955,-359.129,-342.921,-36.500,-69.240,8.780
170,47830.925000,-32.795,33.391,-263.907,-44.842,-362.979,-344.852,-22.500,-163.240,-0.220
171,47830.947000,-50.417,35.415,-263.907,-46.860,-360.061,-342.851,-5.500,-129.240,9.780
172,47830.971000,-41.606,34.403,-256.000,-42.938,-359.128,-343.906,34.500,57.760,13.780
173,47830.989000,-26.922,32.379,-248.093,-37.066,-361.117,-343.023,57.500,107.760,3.780
174,47830.995000,-24.964,30.356,-246.116,-41.889,-363.004,-345.889,58.500,37.760,-1.220
175,47831.35000,-26.922,31.368,-243.151,-43.933,-361.056,-341.917,49.500,-28.240,11.780
176,47831.50000,-33.774,28.332,-240.185,-47.787,-360.049,-345.788,42.500,-62.240,19.780
177,47831.74000,-38.669,26.308,-241.174,-42.868,-362.995,-345.871,39.500,-55.240,21.780
178,47831.91000,-37.690,27.320,-241.174,-40.920,-362.046,-345.907,35.500,-12.240,10.780
179,47831.114000,-33.774,26.308,-239.197,-39.975,-363.992,-342.968,33.500,6.760,-2.220
180,47831.134000,-33.774,27.320,-240.185,-36.052,-364.995,-343.036,20.500,-11.240,-13.220
181,47831.154000,-32.795,27.320,-239.197,-39.897,-364.956,-346.906,9.500,-23.240,-20.220
182,47831.174000,-32.795,27.320,-241.174,-38.954,-361.095,-346.927,7.500,-21.240,-23.220
183,47831.194000,-32.795,27.320,-240.185,-40.946,-359.144,-345.910,2.500,-10.240,-21.220
184,47831.216000,-167.893,-151.779,52.386,-37.067,-359.181,-344.009,-1727.500,290.760,181.780
185,47831.234000,-29.859,0.000,-196.695,-49.920,-380.367,-325.053,292.500,-2184.240,351.780
186,47831.258000,-154.187,-21.249,-242.162,-50.074,-388.119,-312.243,-315.500,-1299.240,133.780
187,47831.278000,-141.461,-15.178,-264.896,-54.889,-387.102,-317.081,38.500,35.760,-115.220
188,47831.305000,-123.839,23.273,-268.849,-47.896,-374.573,-331.986,286.500,1092.760,-283.220
189,47831.331000,8.321,19.225,-237.220,-47.829,-362.955,-341.846,319.500,1499.760,12.780
190,47831.345000,39.648,86.008,-229.313,-44.835,-358.139,-347.811,-85.500,490.760,-27.220
191,47831.363000,-21.048,32.379,-256.000,-43.821,-360.081,-348.811,-62.500,31.760,-0.220
192,47831.379000,-9.300,32.379,-260.942,-44.843,-359.107,-346.825,-66.500,-247.240,-27.220
193,47831.405000,-38.669,39.462,-265.884,-47.794,-366.824,-341.842,-48.500,-291.240,-7.220
194,47831.424000,-59.228,38.451,-266.873,-48.826,-361.011,-341.830,-26.500,-168.240,2.780
195,47831.440000,-47.480,39.462,-256.988,-48.800,-360.042,-343.801,26.500,100.760,14.780
196,47831.458000,-26.922,36.427,-252.046,-47.813,-361.018,-343.817,54.500,139.760,-2.220
197,47831.485000,-21.048,35.415,-247.104,-51.780,-355.178,-343.754,54.500,36.760,-8.220
198,47831.500000,-25.943,35.415,-245.127,-49.709,-360.029,-347.723,45.500,-64.240,5.780
199,47831.528000,-37.690,33.391,-243.151,-47.804,-361.986,-343.816,42.500,-75.240,12.780
200,47831.545000,-42.585,30.356,-242.162,-45.829,-362.002,-344.836,52.500,-9.240,9.780
201,47831.561000,-41.606,31.368,-238.208,-45.864,-360.068,-343.853,55.500,50.760,-2.220
202,47831.615000,-37.690,31.368,-235.243,-46.818,-357.154,-346.793,52.500,65.760,-10.220
203,47831.624000,-28.880,29.344,-236.232,-41.898,-362.037,-345.890,36.500,40.760,-14.220
204,47831.624000,-31.816,30.356,-238.208,-38.980,-362.065,-344.957,17.500,-15.240,-32.220
205,47831.651000,-34.753,30.356,-239.197,-45.864,-360.068,-343.853,4.500,-35.240,-45.220
206,47831.669000,-38.669,30.356,-238.208,-44.808,-361.041,-347.808,-0.500,-10.240,-54.220
207,47831.686000,-38.669,30.356,-237.220,-44.860,-361.044,-344.854,-4.500,-0.240,-58.220
208,47831.709000,-38.669,31.368,-243.151,-43.933,-361.056,-341.917,-8.500,0.760,-59.220
209,47831.731000,-41.606,31.368,-248.093,-45.804,-359.097,-347.793,-7.500,-7.240,-62.220
210,47831.754000,-50.417,31.368,-257.977,-38.980,-362.065,-344.957,10.500,13.760,-73.220
211,47831.773000,-61.185,32.379,-273.792,-36.997,-363.049,-345.975,24.500,30.760,-82.220
212,47831.795000,-71.954,31.368,-296.525,-40.885,-360.108,-348.863,71.500,24.760,-119.220
213,47831.809000,-71.954,35.415,-312.340,-33.057,-364.051,-347.028,138.500,-60.240,-195.220
214,47831.830000,-75.870,39.462,-325.189,-29.186,-365.057,-344.142,225.500,-178.240,-298.220
215,47831.851000,-81.744,42.498,-330.131,-18.447,-368.060,-341.375,329.500,-247.240,-396.220
216,47831.873000,-89.576,40.474,-337.050,-13.520,-368.102,-343.431,431.500,-194.240,-483.220
217,47831.893000,-87.618,45.534,-334.085,-5.718,-371.079,-340.612,536.500,-66.240,-535.220
218,47831.914000,-69.017,43.510,-329.143,12.935,-374.148,-342.908,627.500,-10.240,-574.220
219,47831.945000,-55.312,39.462,-321.236,18.736,-370.334,-341.046,710.500,-23.240,-604.220
220,47831.953000,-46.501,37.439,-313.328,38.272,-372.449,-338.436,753.500,-38.240,-609.220
221,47831.973000,-22.027,24.285,-307.398,47.113,-374.463,-339.574,817.500,-93.240,-613.220
222,47831.989000,-19.090,22.261,-300.479,66.631,-376.580,-335.979,887.500,-138.240,-623.220
223,47832.46000,-12.237,13.154,-299.490,79.344,-379.600,-334.232,961.500,-134.240,-600.220
224,47832.53000,2.447,10.119,-294.548,92.947,-376.826,-330.538,1030.500,-120.240,-571.220
225,47832.54000,6.363,2.024,-291.583,113.340,-377.022,-322.038,1100.500,-156.240,-506.220
226,47832.80000,9.300,-3.036,-289.606,126.026,-381.011,-318.320,1166.500,-184.240,-425.220
227,47832.98000,9.300,-5.059,-282.687,147.442,-386.052,-309.833,1232.500,-194.240,-354.220
228,47832.120000,17.132,-10.119,-278.734,150.317,-387.050,-305.945,1267.500,-197.240,-313.220
229,47832.141000,23.006,-18.213,-274.780,171.610,-386.291,-293.525,1326.500,-207.240,-251.220
230,47832.171000,14.195,-27.320,-270.826,179.430,-389.267,-291.691,1364.500,-257.240,-187.220
231,47832.190000,11.258,-29.344,-259.954,195.771,-391.370,-274.257,1412.500,-227.240,-120.220
232,47832.208000,13.216,-36.427,-247.104,207.384,-396.324,-264.612,1467.500,-145.240,-24.220
233,47832.224000,22.027,-46.545,-229.313,224.868,-399.395,-256.058,1508.500,-53.240,71.780
234,47832.243000,23.985,-60.711,-223.382,234.411,-401.433,-241.458,1520.500,-69.240,174.780
235,47832.268000,25.943,-65.771,-206.579,239.200,-403.419,-234.649,1524.500,-96.240,260.780
236,47832.293000,26.922,-73.866,-188.788,239.938,-407.314,-218.906,1509.500,-99.240,348.780
237,47832.306000,21.048,-87.020,-170.996,247.628,-409.328,-210.180,1498.500,-102.240,394.780
238,47832.315000,15.174,-97.138,-161.112,253.301,-416.168,-195.505,1462.500,-55.240,492.780
239,47832.346000,22.027,-105.233,-150.239,250.315,-420.016,-190.526,1413.500,54.760,608.780
240,47832.367000,27.901,-111.304,-131.459,249.156,-424.857,-177.702,1348.500,118.760,729.780
241,47832.384000,23.985,-119.399,-115.645,250.016,-434.551,-165.892,1268.500,107.760,853.780
242,47832.425000,11.258,-125.470,-106.749,242.128,-437.387,-160.827,1184.500,143.760,969.780
243,47832.453000,6.363,-130.530,-97.853,238.208,-446.063,-155.825,1099.500,285.760,1100.780
244,47832.453000,9.300,-131.542,-85.992,229.428,-450.821,-154.680,997.500,413.760,1223.780
245,47832.470000,3.426,-133.565,-80.062,211.817,-456.468,-151.408,887.500,433.760,1337.780
246,47832.488000,-23.985,-132.553,-69.189,200.023,-456.364,-148.246,833.500,513.760,1398.780
247,47832.509000,-23.985,-137.613,-61.282,182.629,-464.903,-155.804,729.500,730.760,1522.780
248,47832.528000,-2.447,-137.613,-55.351,158.358,-468.542,-164.231,602.500,811.760,1626.780
249,47832.573000,-20.069,-128.506,-58.317,146.703,-468.430,-168.947,436.500,720.760,1711.780
250,47832.588000,-48.459,-123.447,-62.270,120.482,-467.211,-180.298,321.500,834.760,1821.780
251,47832.594000,-53.354,-116.364,-51.398,110.898,-473.886,-187.996,196.500,1105.760,1922.780
252,47832.616000,-45.522,-111.304,-43.490,77.921,-465.823,-208.096,36.500,1299.760,2017.780
253,47832.628000,-35.732,-101.186,-56.340,68.240,-463.793,-214.818,-117.500,1210.760,2112.780
254,47832.646000,-30.837,-90.055,-76.108,26.327,-454.690,-227.869,-195.500,1087.760,2162.780
255,47832.678000,-48.459,-70.830,-86.981,11.753,-454.551,-233.518,-333.500,841.760,2233.780
256,47832.710000,-76.849,-53.628,-77.097,-28.248,-440.629,-246.609,-462.500,857.760,2288.780
257,47832.738000,-87.618,-45.534,-93.900,-66.350,-431.567,-253.821,-583.500,956.760,2340.780
258,47832.738000,-72.933,-41.486,-120.587,-90.737,-422.629,-262.260,-687.500,899.760,2350.780
259,47832.759000,-72.933,-17.202,-118.610,-126.011,-401.986,-269.536,-779.500,825.760,2302.780
260,47832.773000,-105.239,10.119,-104.772,-143.643,-394.083,-272.187,-913.500,1011.760,2275.780
261,47832.796000,-126.776,13.154,-127.506,-180.867,-368.582,-282.387,-1062.500,1319.760,2226.780
262,47832.823000,-94.470,8.095,-160.124,-195.546,-360.706,-286.074,-1186.500,1339.760,2092.780
263,47832.838000,-60.207,35.415,-157.158,-229.948,-330.398,-292.392,-1250.500,1242.760,1988.780
264,47832.865000,-82.723,72.854,-146.286,-260.497,-301.097,-294.839,-1363.500,1231.760,1833.780
265,47832.880000,-107.197,79.937,-167.042,-282.192,-282.521,-294.477,-1495.500,1499.760,1750.780
266,47832.904000,-74.891,76.901,-200.649,-303.016,-254.280,-293.158,-1594.500,1569.760,1629.780
267,47832.921000,-45.522,113.328,-209.544,-317.966,-235.772,-287.008,-1683.500,1434.760,1498.780
268,47832.939000,-62.164,139.636,-243.151,-347.674,-208.423,-280.608,-1719.500,1388.760,1431.780
269,47832.956000,-74.891,136.601,-268.849,-354.822,-192.891,-271.639,-1721.500,1448.760,1348.780
270,47832.970000,-51.396,143.684,-260.942,-380.746,-162.682,-259.403,-1750.500,1333.760,1217.780
271,47833.3000,-42.585,167.968,-273.792,-392.742,-148.071,-252.316,-1771.500,1207.760,1084.780
272,47833.25000,-75.870,174.040,-292.571,-407.910,-122.800,-237.311,-1754.500,1199.760,1006.780
273,47833.48000,-66.080,176.063,-288.618,-429.997,-97.470,-218.245,-1723.500,1399.760,849.780
274,47833.65000,-23.985,190.229,-263.907,-430.233,-88.772,-209.391,-1768.500,1344.760,662.780
275,47833.83000,-11.258,205.407,-264.896,-441.520,-71.282,-188.538,-1825.500,1131.760,518.780
276,47833.105000,-23.985,223.621,-269.838,-442.795,-63.546,-175.727,-1774.500,1147.760,398.780
277,47833.128000,-23.985,227.668,-266.873,-460.897,-44.055,-157.709,-1718.500,1245.760,329.780
278,47833.156000,-2.447,230.704,-258.965,-458.256,-42.163,-142.007,-1649.500,1270.760,216.780
279,47833.179000,7.342,234.751,-241.174,-467.472,-29.523,-125.123,-1558.500,1269.760,135.780
280,47833.227000,9.300,243.858,-230.301,-475.744,-18.830,-105.300,-1509.500,1306.760,109.780
281,47833.227000,9.300,254.988,-222.394,-477.918,-15.921,-94.436,-1435.500,1524.760,97.780
282,47833.235000,21.048,253.976,-215.475,-479.245,-6.252,-79.657,-1362.500,1784.760,72.780
283,47833.258000,51.396,247.905,-209.544,-482.407,-0.431,-69.763,-1283.500,1794.760,13.780
284,47833.267000,71.954,254.988,-191.753,-488.634,4.442,-51.939,-1218.500,1617.760,-59.220
285,47833.284000,74.891,260.047,-177.915,-484.868,7.302,-45.117,-1137.500,1532.760,-105.220
286,47833.300000,93.491,233.739,-148.263,-485.206,12.122,-28.381,-1110.500,1441.760,-184.220
287,47833.333000,85.660,251.953,-137.390,-493.284,7.340,-11.497,-1138.500,1335.760,-325.220
288,47833.355000,68.038,265.107,-153.205,-493.405,9.269,-5.590,-1025.500,1314.760,-475.220
289,47833.372000,45.522,253.976,-145.297,-491.620,3.434,7.183,-909.500,1372.760,-559.220
290,47833.398000,10.279,230.704,-141.344,-492.648,-4.303,14.101,-704.500,1784.760,-705.220
291,47833.413000,5.384,227.668,-149.251,-493.695,-10.106,21.018,-572.500,2523.760,-909.220
292,47833.434000,65.101,262.071,-105.761,-490.644,-18.837,19.005,-442.500,3325.760,-1244.220
293,47833.455000,115.029,261.059,-60.293,-485.600,-39.199,20.908,-219.500,3431.760,-1403.220
294,47833.480000,129.713,250.941,-20.757,-489.356,-48.834,17.048,-45.500,2924.760,-1617.220
295,47833.503000,122.860,258.024,7.907,-489.073,-70.112,12.146,-7.500,2321.760,-1872.220
296,47833.525000,111.113,275.225,18.780,-484.824,-95.294,6.194,-34.500,2003.760,-2040.220
297,47833.544000,103.281,296.474,25.699,-474.758,-114.725,0.131,-51.500,1955.760,-2105.220
298,47833.562000,69.017,327.842,7.907,-473.434,-144.720,-3.795,-107.500,1915.760,-2197.220
299,47833.581000,27.901,351.115,0.000,-469.335,-157.328,-7.790,-112.500,2101.760,-2371.220
300,47833.614000,22.027,357.186,-23.722,-454.105,-189.371,-22.789,9.500,2502.760,-2397.220
301,47833.633000,11.258,379.447,-45.467,-450.899,-198.093,-33.664,166.500,2736.760,-2533.220
302,47833.663000,-3.426,395.636,-44.479,-426.654,-230.205,-60.636,412.500,3119.760,-2617.220
303,47833.669000,-23.985,409.802,-52.386,-409.227,-250.638,-95.376,614.500,3519.760,-2616.220
304,47833.691000,23.985,399.684,-94.888,-397.034,-256.526,-118.228,833.500,3681.760,-2497.220
305,47833.706000,63.143,400.696,-150.239,-373.721,-271.204,-157.017,962.500,3043.760,-2508.220
306,47833.729000,46.501,408.791,-172.973,-362.636,-276.123,-172.958,1018.500,2618.760,-2547.220
307,47833.752000,9.300,407.779,-174.950,-337.460,-291.792,-205.872,1155.500,1965.760,-2578.220
308,47833.773000,-18.111,414.862,-187.799,-314.634,-294.882,-223.008,1311.500,1675.760,-2577.220
309,47833.790000,-39.648,434.087,-214.486,-278.730,-308.715,-255.130,1532.500,1699.760,-2529.220
310,47833.810000,-60.207,432.063,-206.579,-260.754,-308.855,-276.121,1817.500,2126.760,-2406.220
311,47833.833000,-1.468,422.957,-189.776,-210.212,-305.401,-315.413,2080.500,2501.760,-2152.220
312,47833.864000,23.985,406.767,-220.417,-173.458,-288.277,-356.446,2312.500,2167.760,-1953.220
313,47833.867000,0.489,406.767,-223.382,-151.657,-280.714,-376.530,2460.500,2027.760,-1755.220
314,47833.888000,12.237,398.672,-207.568,-105.344,-259.820,-406.907,2563.500,2034.760,-1500.220
315,47833.909000,23.006,374.387,-225.359,-69.940,-249.483,-423.297,2775.500,1862.760,-1390.220
316,47833.924000,12.237,363.257,-227.336,-19.869,-228.633,-444.881,2895.500,1734.760,-1222.220
317,47833.944000,23.006,361.233,-208.556,13.483,-217.316,-456.313,3005.500,1784.760,-975.220
318,47833.960000,54.333,327.842,-211.521,64.358,-190.678,-471.027,3165.500,1634.760,-714.220
319,47833.992000,54.333,296.474,-207.568,121.796,-163.150,-470.106,3183.500,1363.760,-544.220
320,47834.4000,57.270,284.332,-189.776,154.994,-153.778,-471.689,3174.500,1213.760,-338.220
321,47834.36000,78.807,260.047,-181.869,204.485,-135.864,-458.803,3187.500,878.760,-156.220
322,47834.51000,52.375,222.609,-183.846,235.648,-129.382,-454.440,3128.500,708.760,-46.220
323,47834.69000,32.795,202.372,-166.054,286.987,-120.204,-430.748,3085.500,764.760,25.780
324,47834.91000,40.627,177.075,-160.124,308.182,-106.868,-419.325,3071.500,973.760,208.780
325,47834.114000,73.912,144.696,-161.112,351.685,-102.458,-392.535,3003.500,912.760,335.780
326,47834.145000,83.702,119.399,-141.344,377.817,-97.875,-379.220,2861.500,638.760,422.780
327,47834.165000,70.975,93.091,-138.378,412.412,-99.199,-343.406,2727.500,416.760,517.780
328,47834.180000,66.080,66.783,-147.274,447.042,-106.328,-306.601,2602.500,334.760,581.780
329,47834.204000,64.122,40.474,-136.402,463.365,-104.561,-290.156,2484.500,319.760,672.780
330,47834.226000,56.291,12.142,-130.471,484.306,-116.405,-251.135,2350.500,377.760,771.780
331,47834.241000,44.543,1.012,-131.459,492.749,-116.505,-230.611,2253.500,511.760,894.780
332,47834.259000,49.438,-18.213,-124.541,505.993,-129.238,-198.343,2206.500,571.760,953.780
333,47834.303000,55.312,-37.439,-117.622,515.573,-140.954,-180.779,2100.500,616.760,1060.780
334,47834.307000,49.438,-53.628,-115.645,529.761,-153.698,-146.559,1980.500,584.760,1160.780
335,47834.325000,37.690,-65.771,-109.714,530.425,-175.986,-117.011,1890.500,615.760,1257.780
336,47834.346000,41.606,-86.008,-94.888,525.353,-186.599,-101.158,1775.500,624.760,1352.780
337,47834.368000,41.606,-102.198,-88.958,521.169,-211.744,-72.505,1623.500,490.760,1412.780
338,47834.400000,21.048,-109.281,-100.819,516.219,-222.350,-63.545,1506.500,457.760,1442.780
339,47834.404000,10.279,-122.435,-106.749,510.120,-246.507,-37.813,1412.500,639.760,1451.780
340,47834.425000,17.132,-119.399,-100.819,502.269,-257.084,-30.770,1370.500,700.760,1453.780
341,47834.458000,13.216,-125.470,-98.842,493.426,-283.139,-14.832,1278.500,683.760,1482.780
342,47834.476000,8.321,-134.577,-89.946,488.497,-309.230,1.037,1187.500,763.760,1557.780
343,47834.499000,8.321,-137.613,-86.981,460.201,-317.679,1.547,1091.500,816.760,1654.780
344,47834.508000,8.321,-139.636,-82.039,437.798,-345.538,10.836,1011.500,784.760,1765.780
345,47834.533000,-8.321,-142.672,-78.085,434.978,-358.087,10.901,927.500,758.760,1880.780
346,47834.550000,-27.901,-144.696,-71.166,402.921,-388.753,14.457,844.500,879.760,1969.780
347,47834.578000,-41.606,-144.696,-63.259,384.426,-395.354,12.823,743.500,1048.760,2042.780
348,47834.595000,-43.564,-146.719,-53.375,355.424,-420.233,6.475,626.500,1138.760,2112.780
349,47834.599000,-50.417,-149.755,-48.432,335.077,-430.682,0.940,559.500,1182.760,2142.780
350,47834.631000,-66.080,-151.779,-47.444,302.324,-450.676,-17.162,416.500,1366.760,2205.780
351,47834.654000,-65.101,-143.684,-42.502,261.803,-467.692,-40.052,264.500,1613.760,2257.780
352,47834.668000,-56.291,-147.731,-54.363,247.483,-478.186,-54.553,119.500,1776.760,2348.780
353,47834.690000,-71.954,-117.375,-72.154,205.954,-484.548,-81.375,-6.500,1848.760,2440.780
354,47834.713000,-98.386,-103.209,-69.189,183.822,-487.226,-100.670,-88.500,2050.760,2490.780
355,47834.735000,-102.302,-108.269,-83.027,138.560,-488.703,-140.230,-186.500,2417.760,2489.780
356,47834.765000,-92.512,-117.375,-88.958,125.189,-486.624,-159.685,-296.500,2626.760,2404.780
357,47834.776000,-68.038,-96.126,-82.039,86.738,-472.678,-205.290,-426.500,2686.760,2299.780
358,47834.794000,-51.396,-80.949,-92.911,40.242,-455.770,-239.928,-499.500,2606.760,2281.780
359,47834.815000,-51.396,-77.913,-115.645,21.882,-448.813,-256.347,-674.500,2262.760,2212.780
360,47834.833000,-61.185,-58.688,-124.541,-14.059,-426.207,-282.317,-856.500,1884.760,2161.780
361,47834.858000,-68.038,-44.522,-136.402,-34.445,-417.300,-295.750,-982.500,1718.760,2112.780
362,47834.874000,-65.101,-30.356,-144.309,-74.475,-392.732,-312.790,-1045.500,1703.760,2078.780
363,47834.901000,-73.912,-25.296,-147.274,-89.977,-382.902,-326.310,-1119.500,1770.760,1988.780
364,47834.944000,-62.164,-36.427,-149.251,-122.319,-350.671,-339.558,-1245.500,1910.760,1830.780
365,47834.953000,-29.859,-33.391,-146.286,-144.819,-335.947,-347.052,-1421.500,1901.760,1601.780
366,47834.975000,-5.384,-16.190,-167.042,-175.316,-306.644,-352.454,-1509.500,1783.760,1488.780
367,47834.984000,-7.342,9.107,-173.961,-209.655,-283.108,-358.765,-1669.500,1425.760,1286.780
368,47835.6000,-10.279,34.403,-204.602,-224.535,-270.403,-353.594,-1827.500,1179.760,1134.780
369,47835.29000,-16.153,42.498,-244.139,-254.215,-249.828,-345.218,-1916.500,918.760,1038.780
370,47835.49000,-21.048,58.688,-266.873,-264.097,-242.969,-343.082,-1944.500,736.760,976.780
371,47835.64000,-22.027,87.020,-271.815,-292.824,-223.373,-332.752,-1929.500,780.760,939.780
372,47835.84000,-27.901,113.328,-279.722,-310.708,-210.645,-323.591,-1846.500,986.760,937.780
373,47835.105000,-23.985,117.375,-313.328,-332.612,-188.209,-313.385,-1728.500,1031.760,937.780
374,47835.125000,-20.069,111.304,-314.317,-353.529,-168.685,-302.209,-1617.500,970.760,904.780
375,47835.145000,-27.901,130.530,-276.757,-358.676,-156.072,-294.257,-1582.500,1045.760,874.780
376,47835.166000,-8.321,146.719,-256.000,-376.702,-129.802,-284.124,-1546.500,1270.760,843.780
377,47835.189000,15.174,150.767,-273.792,-385.735,-123.927,-274.126,-1563.500,1154.760,745.780
378,47835.211000,12.237,160.885,-277.745,-403.819,-106.371,-256.107,-1608.500,816.760,604.780
379,47835.226000,11.258,172.016,-244.139,-411.918,-93.732,-247.118,-1650.500,746.760,505.780
380,47835.246000,18.111,180.111,-254.023,-420.120,-86.907,-229.261,-1752.500,676.760,399.780
381,47835.274000,9.300,192.253,-254.023,-429.336,-76.203,-211.390,-1787.500,648.760,268.780
382,47835.288000,6.363,195.289,-258.965,-439.512,-69.361,-192.514,-1778.500,780.760,205.780
383,47835.310000,14.195,200.348,-280.710,-449.811,-54.782,-170.691,-1746.500,807.760,178.780
384,47835.330000,0.489,209.455,-292.571,-457.881,-52.789,-157.752,-1621.500,760.760,130.780
385,47835.353000,-27.901,212.490,-270.826,-462.117,-45.996,-142.918,-1377.500,804.760,89.780
386,47835.373000,-26.922,225.644,-220.417,-467.227,-43.060,-132.002,-1216.500,935.760,70.780
387,47835.393000,-6.363,233.739,-213.498,-472.432,-35.290,-118.137,-1203.500,778.760,35.780
388,47835.425000,-2.447,242.846,-211.521,-473.584,-33.355,-109.259,-1180.500,765.760,-10.220
389,47835.439000,13.216,243.858,-193.730,-474.875,-29.492,-93.489,-1166.500,778.760,-29.220
390,47835.466000,10.279,234.751,-173.961,-473.300,-23.724,-74.819,-1219.500,850.760,-94.220
391,47835.486000,19.090,237.787,-162.100,-480.289,-21.734,-67.807,-1303.500,922.760,-185.220
392,47835.495000,44.543,239.810,-157.158,-485.528,-19.773,-49.012,-1317.500,880.760,-228.220
393,47835.518000,52.375,238.798,-141.344,-485.632,-19.779,-43.103,-1321.500,760.760,-323.220
394,47835.538000,40.627,233.739,-145.297,-487.933,-25.588,-20.413,-1297.500,697.760,-460.220
395,47835.554000,36.711,224.632,-135.413,-492.938,-26.518,-13.432,-1293.500,905.760,-651.220
396,47835.583000,62.164,242.846,-148.263,-486.320,-35.304,4.181,-1215.500,1099.760,-802.220
397,47835.606000,56.291,252.964,-181.869,-486.292,-42.078,6.157,-1069.500,1240.760,-939.220
398,47835.625000,35.732,243.858,-188.788,-485.422,-56.611,19.941,-917.500,1715.760,-1128.220
399,47835.648000,59.228,242.846,-159.135,-489.220,-71.088,21.010,-744.500,1989.760,-1318.220
400,47835.668000,99.365,250.941,-135.413,-485.330,-79.836,26.858,-612.500,1945.760,-1463.220
401,47835.688000,115.029,261.059,-120.587,-480.329,-97.297,29.743,-549.500,1744.760,-1471.220
402,47835.703000,97.407,263.083,-86.981,-482.154,-105.983,26.832,-436.500,1640.760,-1382.220
403,47835.720000,79.786,258.024,-52.386,-476.087,-127.319,26.750,-392.500,1692.760,-1341.220
404,47835.745000,88.597,267.130,-38.548,-469.115,-135.117,23.682,-363.500,1702.760,-1391.220
405,47835.773000,97.407,276.237,-48.432,-467.872,-154.470,18.761,-321.500,1632.760,-1446.220
406,47835.791000,74.891,275.225,-55.351,-455.839,-176.822,13.652,-246.500,1664.760,-1432.220
407,47835.810000,26.922,264.095,-55.351,-454.737,-184.567,10.688,-227.500,1926.760,-1430.220
408,47835.827000,-14.195,288.379,-51.398,-447.520,-202.031,-1.233,-131.500,2359.760,-1461.220
409,47835.848000,-23.006,314.688,-60.293,-447.285,-206.857,-12.060,-27.500,2592.760,-1463.220
410,47835.875000,-18.111,317.723,-75.120,-437.868,-226.261,-36.815,204.500,2867.760,-1558.220
411,47835.889000,-29.859,320.759,-77.097,-425.840,-231.191,-50.805,318.500,3051.760,-1731.220
412,47835.914000,-24.964,336.949,-81.050,-416.372,-244.784,-81.474,443.500,3110.760,-1830.220
413,47835.923000,-4.405,338.972,-102.795,-408.802,-257.389,-116.050,576.500,2871.760,-1869.220
414,47835.941000,10.279,330.877,-131.459,-393.863,-265.251,-127.134,601.500,2336.760,-1986.220
415,47835.969000,-12.237,344.032,-135.413,-373.745,-277.981,-152.086,675.500,1943.760,-2093.220
416,47835.980000,-41.606,351.115,-142.332,-360.720,-282.919,-167.077,775.500,1809.760,-2130.220
417,47836.1000,-14.195,363.257,-173.961,-333.796,-298.617,-188.209,891.500,1497.760,-2189.220
418,47836.29000,-44.543,363.257,-189.776,-321.688,-306.446,-205.150,947.500,1341.760,-2222.220
419,47836.51000,-54.333,361.233,-171.985,-290.824,-319.275,-229.308,1059.500,1371.760,-2240.220
420,47836.69000,-6.363,361.233,-177.915,-278.770,-323.236,-245.268,1161.500,1609.760,-2155.220
421,47836.97000,-8.321,362.245,-203.614,-245.995,-323.502,-273.412,1310.500,1352.760,-2125.220
422,47836.115000,-39.648,357.186,-198.672,-210.248,-333.472,-298.644,1463.500,1123.760,-2088.220
423,47836.135000,-31.816,352.126,-201.637,-184.591,-332.723,-311.897,1606.500,1186.760,-1956.220
424,47836.158000,-16.153,347.067,-224.371,-150.977,-329.135,-334.154,1752.500,1123.760,-1844.220
425,47836.176000,-13.216,338.972,-226.347,-134.092,-328.304,-349.220,1898.500,1024.760,-1734.220
426,47836.199000,-18.111,326.830,-211.521,-89.803,-320.947,-368.717,1974.500,1016.760,-1552.220
427,47836.214000,-6.363,311.652,-215.475,-68.078,-318.227,-381.902,2120.500,1058.760,-1447.220
428,47836.239000,-5.384,294.451,-218.440,-17.034,-309.970,-396.598,2252.500,1037.760,-1296.220
429,47836.270000,-11.258,274.213,-210.533,23.123,-291.942,-409.143,2349.500,1002.760,-1128.220
430,47836.284000,3.426,251.953,-213.498,50.563,-287.349,-414.556,2437.500,939.760,-947.220
431,47836.322000,12.237,229.692,-216.463,98.490,-280.043,-418.366,2471.500,659.760,-850.220
432,47836.322000,-15.174,220.585,-200.649,115.036,-274.392,-416.696,2419.500,474.760,-761.220
433,47836.344000,-9.300,195.289,-186.811,155.039,-266.052,-415.445,2452.500,634.760,-605.220
434,47836.366000,16.153,177.075,-186.811,178.339,-255.629,-410.947,2434.500,551.760,-548.220
435,47836.381000,6.363,157.850,-189.776,223.202,-253.143,-404.852,2409.500,443.760,-536.220
436,47836.411000,-7.342,136.601,-178.903,244.493,-244.641,-396.379,2356.500,417.760,-466.220
437,47836.425000,7.342,108.269,-178.903,285.275,-235.353,-384.313,2313.500,565.760,-356.220
438,47836.448000,24.964,90.055,-179.892,323.062,-227.010,-368.256,2236.500,536.760,-278.220
439,47836.462000,23.985,72.854,-177.915,333.601,-227.121,-355.644,2156.500,379.760,-189.220
440,47836.479000,5.384,46.545,-179.892,361.578,-221.594,-336.457,2076.500,279.760,-96.220
441,47836.500000,8.321,33.391,-184.834,376.974,-219.815,-322.949,2012.500,288.760,-23.220
442,47836.521000,8.321,26.308,-172.973,403.946,-215.248,-301.773,1960.500,279.760,80.780
443,47836.543000,0.489,4.047,-167.042,408.606,-218.210,-287.086,1894.500,300.760,199.780
444,47836.566000,6.363,-12.142,-178.903,431.648,-215.545,-263.870,1862.500,343.760,256.780
445,47836.575000,8.321,-24.285,-186.811,455.713,-219.661,-239.679,1785.500,261.760,321.780
446,47836.604000,-11.258,-39.462,-179.892,453.539,-216.752,-228.815,1728.500,226.760,379.780
447,47836.624000,-20.069,-49.581,-189.776,466.799,-223.676,-200.492,1693.500,291.760,427.780
448,47836.638000,-7.342,-56.664,-182.857,474.454,-227.629,-188.810,1685.500,394.760,456.780
449,47836.665000,0.489,-71.842,-171.985,485.809,-234.533,-163.407,1652.500,381.760,515.780
450,47836.684000,-1.468,-88.032,-177.915,481.757,-238.377,-153.486,1599.500,335.760,560.780
451,47836.710000,4.405,-87.020,-172.973,492.109,-250.113,-124.122,1564.500,324.760,603.780
452,47836.733000,4.405,-84.996,-158.147,491.953,-252.057,-114.272,1548.500,347.760,670.780
453,47836.766000,-1.468,-96.126,-148.263,495.515,-260.824,-89.714,1511.500,435.760,720.780
454,47836.785000,-0.489,-108.269,-145.297,486.522,-276.241,-70.832,1461.500,550.760,815.780
455,47836.794000,-0.489,-110.292,-134.425,488.377,-282.072,-61.998,1406.500,666.760,908.780
456,47836.813000,-4.405,-117.375,-128.494,476.421,-292.624,-44.054,1355.500,778.760,1029.780
457,47836.840000,-8.321,-126.482,-129.483,474.468,-306.156,-37.112,1282.500,903.760,1134.780
458,47836.855000,-14.195,-128.506,-127.506,456.789,-317.615,-26.942,1209.500,1029.760,1234.780
459,47836.871000,-23.006,-128.506,-123.552,454.895,-330.176,-23.940,1146.500,1135.760,1312.780
460,47836.894000,-21.048,-135.589,-118.610,441.261,-346.502,-18.757,1082.500,1224.760,1408.780
461,47836.916000,-13.216,-141.660,-111.691,419.869,-364.689,-16.389,1049.500,1248.760,1455.780
462,47836.941000,-15.174,-146.719,-106.749,406.293,-370.365,-20.080,969.500,1194.760,1540.780
463,47836.959000,-17.132,-145.708,-111.691,383.957,-390.477,-18.676,878.500,1083.760,1602.780
464,47836.976000,-20.069,-144.696,-101.807,371.368,-399.065,-21.397,801.500,963.760,1654.780
465,47836.999000,-44.543,-144.696,-89.946,351.120,-420.155,-26.921,704.500,1010.760,1714.780
466,47837.16000,-55.312,-146.719,-79.073,341.423,-425.869,-28.711,598.500,1183.760,1791.780
467,47837.39000,-54.333,-142.672,-75.120,311.536,-445.894,-42.926,499.500,1271.760,1874.780
468,47837.61000,-53.354,-131.542,-59.305,294.315,-456.359,-59.345,377.500,1292.760,1941.780
469,47837.79000,-68.038,-125.470,-44.479,259.255,-462.804,-64.624,235.500,1403.760,1997.780
470,47837.97000,-93.491,-134.577,-39.537,228.439,-471.203,-87.696,157.500,1498.760,2025.780
471,47837.118000,-99.365,-144.696,-47.444,216.031,-474.941,-103.223,4.500,1664.760,2062.780
472,47837.140000,-86.639,-139.636,-62.270,175.506,-478.407,-133.020,-126.500,1716.760,2077.780
473,47837.176000,-80.765,-136.601,-59.305,162.032,-478.270,-145.580,-298.500,1663.760,2040.780
474,47837.179000,-76.849,-124.459,-58.317,128.252,-477.932,-171.563,-496.500,1579.760,2017.780
475,47837.198000,-72.933,-115.352,-84.015,104.906,-473.839,-180.999,-639.500,1349.760,1954.780
476,47837.223000,-86.639,-107.257,-104.772,70.024,-465.756,-204.018,-712.500,1352.760,1865.780
477,47837.238000,-95.449,-91.067,-104.772,38.155,-454.792,-233.001,-791.500,1634.760,1821.780
478,47837.254000,-80.765,-83.984,-109.714,26.663,-451.767,-248.552,-844.500,1745.760,1805.780
479,47837.288000,-57.270,-68.806,-135.413,-6.411,-433.064,-268.662,-953.500,1726.760,1794.780
480,47837.305000,-41.606,-58.688,-165.066,-29.758,-427.035,-279.085,-1075.500,1499.760,1734.780
481,47837.323000,-51.396,-26.308,-170.996,-62.954,-406.402,-293.289,-1143.500,1354.760,1657.780
482,47837.345000,-53.354,-30.356,-211.521,-78.507,-402.383,-300.894,-1219.500,1322.760,1630.780
483,47837.373000,-41.606,-17.202,-216.463,-109.826,-374.997,-314.154,-1262.500,1324.760,1573.780
484,47837.393000,-46.501,6.071,-203.614,-144.104,-354.361,-322.432,-1329.500,1309.760,1517.780
485,47837.408000,-53.354,18.213,-212.510,-157.728,-343.586,-332.048,-1435.500,1398.760,1466.780
486,47837.434000,-39.648,16.190,-223.382,-185.340,-316.247,-333.561,-1507.500,1419.760,1392.780
487,47837.456000,-29.859,52.617,-196.695,-206.897,-299.599,-340.090,-1512.500,1407.760,1335.780
488,47837.474000,-6.363,71.842,-215.475,-233.495,-278.075,-340.629,-1569.500,1420.760,1289.780
489,47837.500000,17.132,81.960,-217.452,-250.219,-264.378,-342.318,-1689.500,1284.760,1263.780
490,47837.519000,-8.321,100.174,-239.197,-280.022,-238.003,-330.008,-1820.500,945.760,1187.780
491,47837.539000,-54.333,105.233,-252.046,-288.995,-229.221,-324.937,-1829.500,816.760,1107.780
492,47837.558000,-53.354,106.245,-242.162,-315.783,-205.772,-315.631,-1758.500,1182.760,1024.780
493,47837.593000,-22.027,114.340,-248.093,-337.724,-177.530,-306.416,-1723.500,1504.760,932.780
494,47837.632000,-11.258,129.518,-252.046,-352.630,-163.859,-300.261,-1688.500,1549.760,821.780
495,47837.632000,-17.132,144.696,-260.942,-370.656,-135.653,-291.115,-1667.500,1556.760,715.780
496,47837.642000,-7.342,154.814,-257.977,-373.793,-126.926,-284.179,-1655.500,1588.760,656.780
497,47837.661000,-9.300,179.099,-257.977,-390.962,-100.672,-267.170,-1618.500,1660.760,483.780
498,47837.688000,-31.816,193.265,-273.792,-401.917,-92.841,-260.094,-1523.500,1803.760,323.780
499,47837.704000,-17.132,199.336,-256.000,-406.227,-66.695,-251.188,-1423.500,2223.760,122.780
500,47837.728000,50.417,197.312,-235.243,-420.373,-44.333,-237.182,-1380.500,2515.760,-119.220
501,47837.738000,91.533,193.265,-227.336,-429.372,-34.585,-231.127,-1411.500,2262.760,-307.220
502,47837.760000,103.281,206.419,-225.359,-439.583,-25.809,-211.268,-1476.500,1789.760,-430.220
503,47837.783000,88.597,220.585,-221.405,-436.873,-23.913,-199.505,-1515.500,1466.760,-447.220
504,47837.805000,88.597,221.597,-210.533,-449.976,-16.075,-181.562,-1535.500,1450.760,-458.220
505,47837.823000,131.671,213.502,-209.544,-458.100,-10.213,-167.643,-1526.500,1383.760,-476.220
506,47837.845000,139.503,230.704,-207.568,-466.273,-12.097,-146.822,-1552.500,930.760,-528.220
507,47837.865000,131.671,251.953,-201.637,-468.385,-14.024,-136.938,-1545.500,477.760,-516.220
508,47837.894000,122.860,244.870,-196.695,-473.605,-19.805,-115.181,-1465.500,178.760,-424.220
509,47837.916000,112.092,237.787,-189.776,-482.758,-19.745,-95.330,-1429.500,75.760,-398.220
510,47837.935000,110.134,242.846,-189.776,-481.960,-22.668,-83.527,-1351.500,27.760,-444.220
511,47837.954000,102.302,239.810,-186.811,-484.192,-28.473,-64.776,-1215.500,-54.240,-486.220
512,47837.974000,80.765,231.715,-168.031,-489.197,-29.403,-57.796,-1057.500,80.760,-548.220
513,47837.989000,69.017,235.763,-144.309,-493.274,-34.216,-45.904,-974.500,273.760,-585.220
514,47838.11000,69.996,244.870,-141.344,-487.427,-41.046,-41.078,-775.500,693.760,-667.220
515,47838.29000,73.912,247.905,-136.402,-488.456,-48.783,-34.159,-576.500,1014.760,-770.220
516,47838.50000,70.975,245.881,-121.575,-487.467,-55.567,-31.215,-383.500,1262.760,-945.220
517,47838.78000,62.164,241.834,-110.703,-488.391,-65.234,-29.219,-217.500,1731.760,-1190.220
518,47838.88000,83.702,235.763,-103.784,-482.239,-80.758,-37.185,-49.500,2149.760,-1463.220
519,47838.110000,120.902,235.763,-85.004,-488.931,-88.430,-41.980,-1.500,2274.760,-1644.220
520,47838.128000,156.145,250.941,-83.027,-477.877,-110.773,-47.072,-64.500,2059.760,-1658.220
521,47838.150000,169.851,265.107,-108.726,-475.805,-117.560,-50.054,-127.500,1855.760,-1577.220
522,47838.173000,185.514,270.166,-123.552,-467.706,-132.134,-58.056,-110.500,1713.760,-1510.220
523,47838.195000,183.556,259.036,-129.483,-473.488,-139.819,-58.929,3.500,1338.760,-1356.220
524,47838.225000,148.314,274.213,-134.425,-464.410,-154.402,-66.948,174.500,1123.760,-1157.220
525,47838.263000,103.281,280.285,-97.853,-458.234,-161.214,-80.832,454.500,1318.760,-907.220
526,47838.263000,53.354,270.166,-95.876,-454.103,-164.141,-91.730,624.500,1536.760,-796.220
527,47838.279000,7.342,280.285,-121.575,-445.885,-167.094,-112.546,831.500,1857.760,-912.220
528,47838.296000,-21.048,276.237,-72.154,-440.732,-170.995,-125.430,979.500,2356.760,-1066.220
529,47838.323000,3.426,271.178,-39.537,-427.475,-173.017,-155.196,941.500,2334.760,-1332.220
530,47838.337000,14.195,290.403,-80.062,-429.163,-177.823,-167.958,900.500,2145.760,-1468.220
531,47838.359000,-6.363,313.676,-110.703,-413.063,-186.652,-188.907,893.500,1824.760,-1683.220
532,47838.381000,-37.690,321.771,-109.714,-393.976,-197.440,-211.874,962.500,1753.760,-1843.220
533,47838.397000,-30.837,317.723,-110.703,-379.073,-203.368,-221.975,1033.500,1669.760,-1950.220
534,47838.423000,-9.300,328.854,-146.286,-367.770,-215.050,-246.773,1091.500,1378.760,-2064.220
535,47838.445000,-9.300,338.972,-166.054,-350.900,-221.964,-256.908,1172.500,1095.760,-2133.220
536,47838.468000,-15.174,347.067,-192.741,-326.867,-238.601,-279.956,1249.500,900.760,-2216.220
537,47838.485000,-45.522,366.293,-223.382,-307.089,-242.638,-290.146,1387.500,1119.760,-2292.220
538,47838.503000,-51.396,374.387,-224.371,-282.106,-248.639,-317.161,1540.500,1529.760,-2289.220
539,47838.520000,-14.195,383.494,-225.359,-256.380,-247.886,-334.353,1638.500,1595.760,-2278.220
540,47838.555000,14.195,392.601,-238.208,-215.751,-251.126,-362.633,1837.500,1570.760,-2215.220
541,47838.584000,12.237,390.577,-231.290,-171.314,-240.857,-391.980,2074.500,1581.760,-2091.220
542,47838.584000,23.985,372.364,-225.359,-149.539,-234.263,-410.093,2243.500,1574.760,-1915.220
543,47838.607000,50.417,369.328,-232.278,-107.129,-222.044,-436.453,2379.500,1408.760,-1783.220
544,47838.624000,59.228,366.293,-235.243,-85.552,-214.494,-443.735,2540.500,1200.760,-1632.220
545,47838.641000,50.417,339.984,-232.278,-30.587,-203.367,-460.472,2641.500,1080.760,-1472.220
546,47838.669000,75.870,310.640,-238.208,0.774,-193.970,-468.913,2704.500,855.760,-1327.220
547,47838.690000,67.059,287.368,-238.208,55.559,-183.822,-474.817,2793.500,509.760,-1189.220
548,47838.710000,51.396,268.142,-233.266,113.062,-174.681,-467.969,2817.500,407.760,-1126.220
549,47838.730000,44.543,247.905,-219.429,135.505,-166.178,-469.361,2891.500,308.760,-994.220
550,47838.748000,37.690,237.787,-201.637,188.999,-156.039,-457.521,2897.500,389.760,-862.220
551,47838.770000,31.816,203.383,-184.834,225.107,-153.469,-454.225,2959.500,584.760,-678.220
552,47838.793000,34.753,180.111,-167.042,269.594,-132.614,-436.332,2954.500,857.760,-454.220
553,47838.813000,61.185,151.779,-147.274,296.738,-122.231,-427.965,2940.500,1118.760,-241.220
554,47838.838000,69.996,129.518,-154.193,345.044,-106.256,-402.258,2835.500,1071.760,-90.220
555,47838.853000,74.891,109.281,-165.066,362.038,-88.061,-376.984,2717.500,957.760,33.780
556,47838.870000,78.807,70.830,-160.124,399.844,-85.524,-358.951,2663.500,902.760,99.780
557,47838.909000,77.828,40.474,-162.100,436.401,-76.218,-329.091,2514.500,742.760,187.780
558,47838.918000,75.870,31.368,-152.216,456.586,-76.426,-308.774,2362.500,561.760,232.780
559,47838.937000,61.185,10.119,-150.239,485.318,-76.728,-273.842,2254.500,449.760,301.780
560,47838.956000,56.291,-11.130,-150.239,488.946,-75.812,-258.156,2189.500,506.760,408.780
561,47838.970000,69.017,-28.332,-129.483,509.912,-80.878,-224.065,2125.500,706.760,551.780
562,47838.995000,74.891,-41.486,-129.483,520.381,-80.993,-207.514,2014.500,705.760,709.780
563,47839.40000,78.807,-61.723,-112.680,530.671,-89.829,-176.183,1905.500,642.760,839.780
564,47839.44000,78.807,-77.913,-104.772,544.972,-107.406,-145.898,1772.500,520.760,948.780
565,47839.53000,72.933,-90.055,-101.807,549.642,-115.206,-129.236,1706.500,450.760,989.780
566,47839.84000,57.270,-97.138,-99.830,552.228,-135.578,-98.739,1585.500,365.760,1057.780
567,47839.120000,44.543,-113.328,-104.772,543.250,-143.251,-84.789,1477.500,392.760,1120.780
568,47839.124000,45.522,-128.506,-102.795,549.967,-166.551,-65.192,1387.500,525.760,1178.780
569,47839.144000,42.585,-146.719,-107.737,546.852,-175.245,-50.360,1269.500,545.760,1224.780
570,47839.171000,32.795,-153.802,-113.668,543.846,-201.356,-32.556,1171.500,544.760,1236.780
571,47839.204000,27.901,-152.791,-106.749,538.855,-222.611,-15.707,1104.500,637.760,1255.780
572,47839.204000,36.711,-145.708,-102.795,525.123,-230.231,-9.548,1025.500,648.760,1287.780
573,47839.218000,35.732,-145.708,-100.819,516.289,-255.318,5.404,999.500,603.760,1362.780
574,47839.234000,16.153,-153.802,-102.795,505.546,-268.770,11.517,937.500,534.760,1405.780
575,47839.259000,7.342,-158.862,-107.737,489.886,-288.954,22.646,877.500,566.760,1495.780
576,47839.273000,5.384,-145.708,-100.819,483.180,-308.242,24.757,843.500,664.760,1563.780
577,47839.300000,-13.216,-148.743,-87.969,458.837,-332.210,31.122,816.500,710.760,1631.780
578,47839.318000,-39.648,-163.921,-92.911,442.266,-344.638,34.383,742.500,884.760,1681.780
579,47839.345000,-32.795,-162.909,-92.911,421.074,-367.653,27.894,664.500,1163.760,1714.780
580,47839.363000,-29.859,-156.838,-95.876,395.976,-387.729,19.501,572.500,1241.760,1749.780
581,47839.385000,-34.753,-155.826,-97.853,388.342,-401.197,15.714,501.500,1297.760,1775.780
582,47839.415000,-24.964,-150.767,-85.004,355.449,-419.264,4.504,459.500,1318.760,1793.780
583,47839.437000,-30.837,-150.767,-93.900,343.000,-429.780,-5.108,360.500,1252.760,1859.780
584,47839.454000,-49.438,-160.885,-105.761,314.048,-448.848,-17.371,286.500,1258.760,1965.780
585,47839.479000,-75.870,-163.921,-104.772,291.812,-453.468,-29.770,218.500,1446.760,2025.780
586,47839.498000,-58.249,-146.719,-79.073,258.070,-466.679,-50.816,163.500,1693.760,2055.780
587,47839.513000,-32.795,-145.708,-70.178,226.372,-481.838,-75.833,22.500,1434.760,2115.780
588,47839.540000,-38.669,-141.660,-76.108,212.786,-484.611,-80.512,-113.500,946.760,2091.780
589,47839.560000,-93.491,-127.494,-72.154,172.972,-489.069,-94.569,-256.500,940.760,2042.780
590,47839.574000,-115.029,-116.364,-94.888,152.719,-492.737,-108.973,-332.500,1347.760,2081.780
591,47839.597000,-89.576,-105.233,-110.703,117.925,-490.456,-133.956,-334.500,1590.760,2100.780
592,47839.614000,-71.954,-100.174,-93.900,98.605,-485.425,-150.356,-386.500,1913.760,2147.780
593,47839.630000,-78.807,-94.103,-79.073,64.018,-479.261,-189.129,-499.500,2140.760,2211.780
594,47839.661000,-64.122,-91.067,-90.934,45.589,-472.307,-201.609,-678.500,2049.760,2218.780
595,47839.670000,-45.522,-66.783,-119.598,4.835,-456.428,-228.471,-791.500,1736.760,2157.780
596,47839.692000,-87.618,-35.415,-109.714,-35.851,-440.545,-259.273,-822.500,1870.760,2162.780
597,47839.713000,-87.618,-33.391,-100.819,-57.320,-427.763,-268.752,-910.500,2133.760,2263.780
598,47839.744000,-44.543,-21.249,-120.587,-98.164,-400.274,-296.611,-1057.500,1943.760,2223.780
599,47839.765000,-48.459,5.059,-133.436,-116.758,-388.490,-302.203,-1100.500,1856.760,2201.780
600,47839.785000,-82.723,9.107,-138.378,-152.841,-354.277,-326.216,-1173.500,2064.760,2211.780
601,47839.803000,-76.849,-7.083,-163.089,-159.730,-334.859,-333.992,-1272.500,2399.760,2150.780
602,47839.825000,-30.837,-3.036,-193.730,-204.846,-294.772,-348.008,-1356.500,2323.760,1976.780
603,47839.844000,-45.522,33.391,-212.510,-220.590,-254.950,-363.527,-1361.500,2288.760,1855.780
604,47839.864000,-61.185,35.415,-220.417,-257.961,-228.489,-365.850,-1444.500,2475.760,1757.780
605,47839.898000,-18.111,41.486,-223.382,-274.943,-188.673,-366.581,-1624.500,2372.760,1550.780
606,47839.920000,20.069,77.913,-231.290,-291.895,-163.375,-361.388,-1736.500,2036.760,1331.780
607,47839.934000,7.342,87.020,-270.826,-321.648,-129.253,-355.979,-1737.500,1836.760,1137.780
608,47839.948000,4.405,72.854,-287.629,-334.666,-113.668,-346.907,-1739.500,1807.760,1006.780
609,47839.980000,-0.489,109.281,-254.023,-353.750,-82.554,-334.792,-1761.500,1888.760,772.780
610,47839.989000,14.195,140.648,-221.405,-363.903,-63.127,-323.807,-1818.500,2008.760,679.780
611,47840.8000,47.480,140.648,-238.208,-379.202,-34.960,-302.895,-1906.500,1748.760,594.780
612,47840.25000,75.870,132.553,-270.826,-404.283,-16.382,-276.878,-2087.500,1358.760,409.780
613,47840.45000,71.954,194.277,-236.232,-412.389,-10.519,-263.943,-2225.500,1061.760,272.780
614,47840.74000,55.312,220.585,-224.371,-424.827,3.099,-231.252,-2263.500,971.760,198.780
615,47840.77000,84.681,205.407,-245.127,-433.877,8.973,-220.270,-2266.500,910.760,116.780
616,47840.108000,114.050,221.597,-269.838,-453.154,17.815,-185.483,-2312.500,750.760,9.780
617,47840.130000,88.597,240.822,-287.629,-461.302,18.836,-167.620,-2366.500,328.760,-16.220
618,47840.148000,47.480,256.000,-282.687,-471.694,24.698,-135.941,-2282.500,248.760,31.780
619,47840.165000,46.501,267.130,-260.942,-477.237,29.545,-101.392,-2092.500,575.760,139.780
620,47840.188000,61.185,269.154,-261.931,-477.471,34.371,-90.565,-1869.500,770.760,248.780
621,47840.204000,66.080,259.036,-251.058,-479.024,45.963,-63.971,-1655.500,770.760,310.780
622,47840.232000,66.080,252.964,-238.208,-486.091,52.788,-54.993,-1510.500,786.760,300.780
623,47840.267000,66.080,254.988,-226.347,-490.473,56.669,-30.309,-1389.500,934.760,201.780
624,47840.294000,71.954,253.976,-202.625,-482.820,62.395,-23.560,-1216.500,1117.760,65.780
625,47840.297000,72.933,257.012,-179.892,-487.124,65.313,-2.814,-1137.500,1176.760,12.780
626,47840.315000,71.954,260.047,-177.915,-491.159,65.342,4.149,-989.500,1272.760,-61.220
627,47840.333000,59.228,249.929,-188.788,-489.427,67.247,15.929,-802.500,1436.760,-127.220
628,47840.360000,48.459,227.668,-191.753,-488.638,63.356,28.718,-569.500,1869.760,-194.220
629,47840.375000,58.249,236.775,-156.170,-492.604,61.453,32.728,-324.500,2406.760,-456.220
630,47840.399000,84.681,229.692,-118.610,-487.727,55.600,36.586,-29.500,2799.760,-670.220
631,47840.422000,112.092,217.549,-87.969,-491.552,45.961,36.665,181.500,2907.760,-822.220
632,47840.444000,159.082,206.419,-39.537,-493.455,38.239,37.692,330.500,2557.760,-1059.220
633,47840.462000,171.809,201.360,-4.942,-497.159,28.607,30.878,351.500,2223.760,-1297.220
634,47840.479000,161.040,212.490,21.745,-496.946,9.261,28.928,324.500,1646.760,-1399.220
635,47840.499000,172.788,222.609,21.745,-492.741,-13.020,23.958,286.500,1410.760,-1549.220
636,47840.515000,171.809,227.668,9.884,-495.440,-27.498,18.115,253.500,1230.760,-1630.220
637,47840.540000,142.440,237.787,-0.988,-496.170,-48.769,15.200,169.500,1154.760,-1685.220
638,47840.547000,116.987,252.964,-10.873,-490.149,-63.333,14.126,99.500,1344.760,-1727.220
639,47840.579000,115.029,279.273,-8.896,-485.918,-84.645,7.185,81.500,1675.760,-1747.220
640,47840.602000,108.176,290.403,-25.699,-491.604,-97.164,3.362,132.500,1806.760,-1853.220
641,47840.619000,94.470,311.652,-35.583,-483.354,-122.377,-7.583,218.500,1954.760,-1998.220
642,47840.639000,75.870,330.877,-44.479,-472.388,-136.982,-11.698,295.500,2089.760,-2038.220
643,47840.659000,69.996,340.996,-64.247,-470.850,-160.189,-31.387,446.500,2330.760,-2040.220
644,47840.682000,51.396,351.115,-87.969,-456.523,-181.572,-56.227,619.500,2459.760,-2110.220
645,47840.702000,37.690,359.210,-84.015,-447.349,-197.118,-69.169,745.500,2636.760,-2156.220
646,47840.739000,39.648,343.020,-85.004,-430.001,-214.651,-100.958,837.500,2667.760,-2117.220
647,47840.768000,58.249,337.960,-120.587,-427.792,-219.494,-112.805,879.500,2335.760,-2167.220
648,47840.770000,45.522,349.091,-141.344,-401.645,-241.947,-141.790,952.500,1900.760,-2256.220
649,47840.787000,13.216,347.067,-131.459,-389.642,-247.847,-153.809,1033.500,1715.760,-2280.220
650,47840.809000,6.363,344.032,-129.483,-370.344,-270.238,-182.673,1100.500,1631.760,-2283.220
651,47840.829000,18.111,362.245,-147.274,-344.338,-283.020,-208.714,1155.500,1542.760,-2292.220
652,47840.847000,0.489,360.221,-156.170,-320.506,-290.957,-224.878,1313.500,1339.760,-2295.220
653,47840.860000,-16.153,349.091,-150.239,-296.449,-300.818,-252.857,1415.500,1323.760,-2234.220
654,47840.890000,-15.174,355.162,-161.112,-280.498,-304.815,-267.901,1497.500,1305.760,-2177.220
655,47840.913000,-25.943,366.293,-167.042,-236.889,-310.983,-297.214,1663.500,1335.760,-2126.220
656,47840.930000,-32.795,337.960,-147.274,-221.944,-310.133,-313.231,1781.500,1512.760,-1996.220
657,47840.948000,3.426,317.723,-170.996,-179.402,-308.553,-341.550,1796.500,1311.760,-1917.220
658,47840.986000,5.384,330.877,-191.753,-166.466,-305.753,-355.565,1839.500,1030.760,-1893.220
659,47841.17000,-16.153,323.794,-170.996,-122.158,-302.266,-374.073,1905.500,996.760,-1755.220
660,47841.19000,-13.216,297.486,-171.985,-77.859,-299.748,-391.595,1948.500,946.760,-1675.220
661,47841.27000,4.405,280.285,-201.637,-52.323,-297.070,-398.942,1993.500,645.760,-1591.220
662,47841.60000,-2.447,274.213,-194.718,-10.110,-297.445,-407.564,1960.500,301.760,-1546.220
663,47841.80000,-17.132,269.154,-198.672,9.451,-296.656,-407.911,1991.500,122.760,-1436.220
664,47841.99000,-23.985,243.858,-212.510,57.440,-296.121,-411.714,2041.500,44.760,-1392.220
665,47841.121000,-26.922,228.680,-217.452,74.004,-292.405,-410.042,2063.500,48.760,-1354.220
666,47841.139000,-48.459,216.538,-217.452,121.872,-288.006,-408.925,2106.500,214.760,-1257.220
667,47841.162000,-51.396,195.289,-220.417,171.608,-277.822,-405.879,2100.500,365.760,-1158.220
668,47841.177000,-26.922,188.206,-212.510,191.063,-271.231,-403.278,2106.500,375.760,-1106.220
669,47841.189000,-19.090,168.980,-211.521,235.847,-263.910,-395.219,2116.500,248.760,-1000.220
670,47841.210000,-42.585,143.684,-206.579,248.332,-255.328,-386.590,2111.500,243.760,-925.220
671,47841.249000,-46.501,125.470,-202.625,288.170,-244.093,-377.463,2102.500,387.760,-834.220
672,47841.282000,-20.069,114.340,-196.695,305.469,-234.592,-364.982,2086.500,370.760,-737.220
673,47841.290000,-22.027,92.079,-189.776,341.360,-227.196,-351.844,2037.500,403.760,-647.220
674,47841.304000,-31.816,73.866,-188.788,359.663,-218.670,-340.364,2003.500,561.760,-536.220
675,47841.324000,-16.153,61.723,-181.869,389.526,-207.357,-320.232,1969.500,624.760,-431.220
676,47841.347000,-1.468,39.462,-177.915,420.385,-194.117,-302.089,1915.500,603.760,-327.220
677,47841.355000,-8.321,7.083,-174.950,428.948,-188.403,-291.418,1881.500,609.760,-268.220
678,47841.383000,-1.468,-11.130,-170.996,449.001,-179.907,-268.156,1823.500,681.760,-151.220
679,47841.397000,7.342,-26.308,-172.973,461.495,-176.164,-257.553,1762.500,749.760,-21.220
680,47841.424000,3.426,-38.451,-172.973,478.613,-169.576,-233.252,1702.500,756.760,104.780
681,47841.441000,7.342,-50.593,-171.985,485.325,-173.518,-223.521,1647.500,773.760,218.780
682,47841.462000,8.321,-58.688,-176.927,501.553,-172.724,-201.167,1600.500,773.760,326.780
683,47841.479000,6.363,-66.783,-175.938,511.875,-171.879,-176.739,1567.500,789.760,442.780
684,47841.531000,4.405,-77.913,-173.961,509.710,-169.937,-165.874,1556.500,816.760,576.780
685,47841.531000,8.321,-92.079,-166.054,514.302,-178.710,-144.287,1550.500,838.760,699.780
686,47841.547000,13.216,-97.138,-153.205,527.899,-186.583,-134.674,1527.500,847.760,767.780
687,47841.577000,14.195,-100.174,-147.274,522.628,-198.175,-107.003,1474.500,783.760,889.780
688,47841.595000,0.489,-105.233,-149.251,527.488,-205.965,-101.173,1387.500,684.760,997.780
689,47841.614000,-10.279,-116.364,-144.309,513.534,-223.277,-77.279,1314.500,689.760,1093.780
690,47841.631000,-18.111,-121.423,-143.320,513.435,-240.705,-62.490,1229.500,784.760,1152.780
691,47841.654000,-18.111,-126.482,-143.320,503.616,-244.489,-58.374,1150.500,900.760,1175.780
692,47841.674000,-20.069,-130.530,-149.251,495.716,-264.748,-43.443,1080.500,925.760,1195.780
693,47841.688000,-12.237,-134.577,-145.297,495.796,-275.390,-42.448,1020.500,909.760,1223.780
694,47841.717000,-12.237,-136.601,-148.263,485.999,-292.724,-32.410,983.500,868.760,1232.780
695,47841.730000,-23.985,-135.589,-145.297,474.241,-300.362,-27.270,920.500,782.760,1251.780
696,47841.753000,-37.690,-137.613,-138.378,465.509,-321.571,-20.200,877.500,800.760,1292.780
697,47841.771000,-29.859,-144.696,-132.448,456.783,-330.198,-20.036,838.500,941.760,1354.780
698,47841.795000,-21.048,-140.648,-128.494,435.339,-348.388,-14.713,767.500,971.760,1415.780
699,47841.810000,-29.859,-138.625,-122.564,416.050,-365.616,-21.242,703.500,924.760,1484.780
700,47841.842000,-40.627,-141.660,-117.622,408.312,-377.155,-20.107,627.500,984.760,1542.780
701,47841.859000,-44.543,-138.625,-114.656,388.046,-398.246,-24.646,543.500,1058.760,1599.780
702,47841.877000,-53.354,-136.601,-116.633,367.602,-401.925,-28.218,466.500,1124.760,1645.780
703,47841.904000,-57.270,-132.553,-107.737,343.516,-416.200,-41.558,424.500,1216.760,1659.780
704,47841.927000,-49.438,-137.613,-113.668,339.855,-424.861,-51.327,325.500,1340.760,1703.780
705,47841.945000,-52.375,-142.672,-119.598,312.857,-434.269,-68.559,218.500,1252.760,1707.780
706,47841.963000,-74.891,-138.625,-109.714,291.793,-450.501,-85.887,120.500,1250.760,1696.780
707,47841.980000,-81.744,-140.648,-117.622,265.531,-454.124,-92.310,21.500,1346.760,1703.780
708,47842.0,-62.164,-139.636,-118.610,240.489,-459.677,-111.549,-95.500,1344.760,1681.780
709,47842.15000,-54.333,-130.530,-123.552,228.930,-462.464,-120.201,-207.500,1142.760,1670.780
710,47842.47000,-75.870,-126.482,-128.494,197.991,-466.998,-138.353,-291.500,1024.760,1656.780
711,47842.65000,-84.681,-120.411,-123.552,187.419,-468.825,-148.009,-328.500,1029.760,1646.780
712,47842.80000,-74.891,-113.328,-128.494,162.299,-471.479,-164.297,-429.500,1014.760,1639.780
713,47842.107000,-86.639,-105.233,-141.344,139.948,-467.394,-174.735,-512.500,902.760,1611.780
714,47842.124000,-100.344,-92.079,-150.239,110.844,-466.145,-188.989,-560.500,962.760,1586.780
715,47842.142000,-95.449,-100.174,-156.170,82.708,-460.066,-205.234,-624.500,1060.760,1544.780
716,47842.162000,-87.618,-93.091,-156.170,73.157,-460.932,-217.862,-715.500,1006.760,1446.780
717,47842.179000,-112.092,-87.020,-170.008,43.930,-451.947,-229.168,-792.500,910.760,1357.780
718,47842.193000,-121.881,-90.055,-176.927,34.309,-448.945,-239.831,-854.500,1019.760,1269.780
719,47842.228000,-105.239,-73.866,-164.077,7.072,-436.104,-255.115,-925.500,1155.760,1169.780
720,47842.247000,-99.365,-60.711,-160.124,-7.530,-427.255,-263.727,-955.500,1192.760,1132.780
721,47842.272000,-82.723,-55.652,-152.216,-31.874,-413.475,-277.095,-1054.500,1278.760,1095.780
722,47842.291000,-59.228,-45.534,-170.008,-39.515,-401.779,-293.709,-1164.500,1174.760,1046.780
723,47842.319000,-60.207,-27.320,-162.100,-66.880,-393.785,-299.141,-1253.500,1134.760,1017.780
724,47842.338000,-76.849,-9.107,-155.181,-89.373,-374.221,-309.595,-1353.500,1301.760,1032.780
725,47842.357000,-37.690,2.024,-160.124,-112.764,-365.291,-319.036,-1466.500,1326.760,1027.780
726,47842.373000,-5.384,21.249,-172.973,-136.259,-352.496,-324.542,-1557.500,992.760,976.780
727,47842.394000,-23.006,35.415,-187.799,-150.030,-340.760,-326.281,-1616.500,795.760,984.780
728,47842.414000,-41.606,53.628,-181.869,-179.510,-325.014,-326.762,-1651.500,851.760,972.780
729,47842.438000,-43.564,68.806,-203.614,-189.315,-315.247,-330.538,-1713.500,1039.760,936.780
730,47842.457000,-47.480,79.937,-237.220,-216.944,-291.781,-329.092,-1703.500,1187.760,854.780
731,47842.479000,-45.522,81.960,-261.931,-245.482,-264.431,-333.542,-1645.500,1420.760,739.780
732,47842.497000,-56.291,96.126,-234.255,-259.279,-253.665,-333.310,-1637.500,1876.760,676.780
733,47842.518000,-22.027,107.257,-226.347,-282.970,-223.458,-336.864,-1680.500,1995.760,621.780
734,47842.546000,33.774,100.174,-263.907,-291.035,-206.946,-331.819,-1701.500,1516.760,495.780
735,47842.561000,38.669,108.269,-268.849,-313.830,-190.303,-323.559,-1698.500,1026.760,394.780
736,47842.580000,-0.489,129.518,-255.012,-322.802,-185.393,-316.515,-1665.500,1047.760,388.780
737,47842.603000,11.258,137.613,-256.988,-334.877,-167.883,-306.477,-1627.500,1076.760,377.780
738,47842.620000,58.249,141.660,-256.000,-353.852,-156.120,-290.404,-1632.500,774.760,344.780
739,47842.643000,71.954,164.933,-256.988,-373.684,-148.214,-279.234,-1626.500,340.760,280.780
740,47842.665000,38.669,179.099,-251.058,-381.842,-140.418,-264.331,-1586.500,255.760,277.780
741,47842.680000,26.922,185.170,-234.255,-390.822,-138.412,-255.315,-1549.500,416.760,244.780
742,47842.703000,65.101,190.229,-229.313,-403.968,-133.481,-233.430,-1550.500,233.760,190.780
743,47842.720000,58.249,198.324,-244.139,-415.918,-129.514,-223.379,-1531.500,-205.240,133.780
744,47842.742000,33.774,216.538,-235.243,-424.084,-128.494,-204.531,-1525.500,-249.240,155.780
745,47842.773000,44.543,220.585,-231.290,-427.219,-127.511,-193.648,-1453.500,-47.240,199.780
746,47842.811000,53.354,217.549,-227.336,-441.351,-121.603,-171.746,-1424.500,-16.240,222.780
747,47842.811000,51.396,213.502,-219.429,-444.608,-116.755,-155.943,-1357.500,-69.240,261.780
748,47842.825000,47.480,221.597,-216.463,-447.734,-118.675,-144.072,-1315.500,-155.240,328.780
749,47842.847000,50.417,231.715,-213.498,-452.074,-108.016,-125.303,-1322.500,-193.240,385.780
750,47842.869000,47.480,234.751,-208.556,-459.062,-107.962,-117.304,-1297.500,-258.240,446.780
751,47842.892000,45.522,238.798,-193.730,-471.308,-98.204,-93.472,-1288.500,-326.240,471.780
752,47842.914000,44.543,239.810,-179.892,-471.499,-94.344,-84.613,-1285.500,-344.240,493.780
753,47842.931000,47.480,235.763,-178.903,-477.770,-88.505,-64.820,-1304.500,-288.240,495.780
754,47842.948000,56.291,226.656,-175.938,-482.128,-77.848,-45.066,-1310.500,-248.240,438.780
755,47842.969000,69.996,216.538,-168.031,-479.374,-76.917,-35.271,-1313.500,-210.240,398.780
756,47842.987000,85.660,222.609,-160.124,-484.682,-74.960,-12.537,-1333.500,-326.240,287.780
757,47843.9000,73.912,242.846,-173.961,-485.860,-73.994,-1.689,-1309.500,-593.240,174.780
758,47843.50000,2.447,252.964,-198.672,-489.107,-72.049,15.102,-1092.500,-619.240,123.780
759,47843.69000,-49.438,241.834,-171.985,-485.376,-67.256,22.906,-769.500,223.760,152.780
760,47843.88000,-35.732,225.644,-155.181,-483.499,-60.503,23.850,-497.500,1233.760,147.780
761,47843.96000,-5.384,227.668,-147.274,-489.335,-62.383,22.971,-345.500,1923.760,21.780
762,47843.112000,9.300,234.751,-116.633,-490.322,-61.407,22.987,-196.500,2265.760,-136.220
763,47843.132000,10.279,232.727,-84.015,-491.257,-64.299,22.022,-126.500,2372.760,-201.220
764,47843.154000,24.964,228.680,-47.444,-487.230,-63.361,15.059,-76.500,2592.760,-335.220
765,47843.177000,67.059,241.834,-37.560,-491.974,-70.083,10.228,-106.500,2614.760,-530.220
766,47843.190000,83.702,254.988,-32.618,-486.006,-78.842,9.149,-77.500,2268.760,-786.220
767,47843.218000,80.765,248.917,-25.699,-481.838,-89.510,0.227,12.500,1831.760,-1022.220
768,47843.235000,63.143,246.893,-20.757,-486.642,-99.140,0.324,26.500,1530.760,-1246.220
769,47843.260000,48.459,261.059,-34.595,-472.705,-115.705,-4.826,-6.500,1376.760,-1412.220
770,47843.284000,45.522,287.368,-49.421,-478.181,-137.892,-15.532,-2.500,1280.760,-1549.220
771,47843.298000,32.795,307.605,-62.270,-468.299,-144.751,-17.668,85.500,1301.760,-1644.220
772,47843.325000,2.447,307.605,-63.259,-462.050,-168.980,-26.610,132.500,1431.760,-1702.220
773,47843.353000,-16.153,324.806,-61.282,-451.085,-179.714,-32.698,208.500,1907.760,-1839.220
774,47843.367000,-8.321,343.020,-89.946,-445.634,-199.085,-54.430,392.500,2340.760,-1955.220
775,47843.385000,-17.132,352.126,-88.958,-438.523,-206.876,-65.376,577.500,2700.760,-2068.220
776,47843.405000,-8.321,364.269,-74.131,-424.075,-226.316,-98.096,704.500,3039.760,-2184.220
777,47843.425000,15.174,367.304,-105.761,-406.659,-239.974,-135.797,856.500,2955.760,-2192.220
778,47843.443000,31.816,361.233,-134.425,-395.538,-252.634,-149.761,955.500,2556.760,-2264.220
779,47843.468000,9.300,366.293,-144.309,-367.489,-261.558,-182.734,1099.500,2238.760,-2365.220
780,47843.487000,-16.153,361.233,-138.378,-350.455,-269.430,-201.731,1228.500,2232.760,-2384.220
781,47843.510000,-4.405,360.221,-145.297,-321.393,-278.360,-236.690,1288.500,2208.760,-2384.220
782,47843.533000,5.384,376.411,-165.066,-315.174,-284.202,-253.529,1400.500,2091.760,-2418.220
783,47843.550000,-11.258,386.530,-162.100,-278.383,-280.626,-289.625,1541.500,2106.760,-2385.220
784,47843.568000,2.447,372.364,-153.205,-262.424,-281.719,-306.642,1664.500,2185.760,-2203.220
785,47843.589000,19.090,360.221,-170.008,-220.836,-275.290,-338.887,1754.500,1967.760,-2068.220
786,47843.612000,8.321,359.210,-175.938,-179.240,-264.021,-374.092,1841.500,1761.760,-1939.220
787,47843.632000,6.363,348.079,-166.054,-165.379,-257.361,-387.143,1968.500,1625.760,-1716.220
788,47843.652000,30.837,325.818,-182.857,-123.004,-247.079,-410.547,2046.500,1193.760,-1577.220
789,47843.669000,14.195,319.747,-211.521,-97.389,-249.237,-419.858,2072.500,990.760,-1495.220
790,47843.704000,-11.258,310.640,-197.683,-54.140,-237.035,-438.358,2142.500,900.760,-1437.220
791,47843.707000,-7.342,295.462,-193.730,-37.464,-230.408,-444.567,2231.500,995.760,-1271.220
792,47843.727000,2.447,274.213,-204.602,11.500,-216.332,-455.295,2298.500,984.760,-1189.220
793,47843.753000,-10.279,260.047,-191.753,61.312,-197.433,-461.120,2314.500,1077.760,-1111.220
794,47843.785000,-0.489,246.893,-185.822,81.910,-187.938,-469.372,2358.500,1116.760,-971.220
795,47843.805000,26.922,223.621,-194.718,127.686,-169.010,-468.235,2365.500,915.760,-893.220
796,47843.824000,29.859,203.383,-203.614,155.948,-160.563,-466.776,2320.500,693.760,-865.220
797,47843.843000,15.174,191.241,-202.625,198.755,-145.482,-461.644,2326.500,678.760,-773.220
798,47843.847000,16.153,171.004,-209.544,218.106,-133.090,-456.094,2337.500,668.760,-722.220
799,47843.872000,42.585,148.743,-215.475,261.772,-123.832,-441.126,2316.500,495.760,-643.220
800,47843.892000,32.795,130.530,-209.544,286.016,-115.355,-433.690,2253.500,391.760,-589.220
801,47843.917000,24.964,124.459,-203.614,327.664,-105.115,-415.734,2247.500,459.760,-480.220
802,47843.935000,39.648,102.198,-203.614,354.574,-89.905,-396.539,2240.500,491.760,-365.220
803,47843.958000,60.207,80.949,-201.637,383.651,-86.316,-383.275,2207.500,452.760,-244.220
804,47843.983000,61.185,61.723,-187.799,411.549,-77.890,-361.136,2166.500,449.760,-95.220
805,47843.997000,61.185,40.474,-183.846,425.835,-71.270,-342.692,2107.500,477.760,51.780
806,47844.19000,89.576,13.154,-164.077,451.805,-71.536,-317.555,2029.500,392.760,213.780
807,47844.42000,75.870,-6.071,-155.181,468.153,-70.735,-302.094,1984.500,315.760,293.780
808,47844.64000,57.270,-25.296,-169.019,489.258,-75.794,-275.881,1884.500,238.760,441.780
809,47844.91000,53.354,-37.439,-166.054,507.313,-77.929,-244.696,1807.500,326.760,560.780
810,47844.105000,54.333,-45.534,-163.089,509.038,-84.735,-227.983,1739.500,499.760,660.780
811,47844.119000,58.249,-55.652,-163.089,518.375,-90.657,-199.592,1668.500,635.760,751.780
812,47844.147000,57.270,-73.866,-168.031,527.979,-93.660,-187.945,1606.500,671.760,868.780
813,47844.162000,60.207,-82.972,-170.008,532.529,-109.210,-160.442,1546.500,671.760,976.780
814,47844.176000,69.017,-80.949,-156.170,542.178,-117.050,-148.790,1495.500,607.760,1082.780
815,47844.203000,49.438,-84.996,-148.263,540.918,-135.447,-123.151,1457.500,520.760,1182.780
816,47844.248000,27.901,-97.138,-153.205,544.552,-157.760,-95.624,1387.500,436.760,1230.780
817,47844.267000,30.837,-108.269,-146.286,535.662,-167.364,-85.611,1353.500,541.760,1334.780
818,47844.275000,23.985,-111.304,-140.355,531.607,-189.598,-65.824,1302.500,606.760,1423.780
819,47844.284000,16.153,-115.352,-133.436,536.539,-208.999,-58.013,1232.500,687.760,1477.780
820,47844.302000,19.090,-123.447,-127.506,517.876,-233.031,-40.919,1157.500,820.760,1527.780
821,47844.324000,17.132,-121.423,-123.552,519.836,-244.664,-35.034,1086.500,909.760,1578.780
822,47844.345000,10.279,-128.506,-121.575,493.449,-270.555,-22.723,1018.500,1027.760,1642.780
823,47844.368000,17.132,-135.589,-118.610,490.620,-282.137,-22.659,932.500,1171.760,1724.780
824,47844.389000,13.216,-127.494,-115.645,467.316,-309.015,-18.278,884.500,1229.760,1768.780
825,47844.405000,9.300,-129.518,-99.830,447.051,-333.978,-20.843,803.500,1373.760,1880.780
826,47844.428000,10.279,-134.577,-100.819,434.542,-347.401,-25.529,693.500,1477.760,2019.780
827,47844.450000,19.090,-133.565,-100.819,406.615,-379.058,-33.858,553.500,1492.760,2140.780
828,47844.468000,22.027,-128.506,-103.784,384.336,-386.584,-42.315,407.500,1475.760,2279.780
829,47844.488000,6.363,-114.340,-98.842,354.459,-409.512,-55.542,260.500,1536.760,2409.780
830,47844.502000,-24.964,-103.209,-93.900,335.186,-420.933,-66.016,151.500,1575.760,2478.780
831,47844.534000,-52.375,-106.245,-93.900,296.605,-439.903,-86.969,26.500,1586.760,2516.780
832,47844.554000,-56.291,-102.198,-88.958,257.113,-453.054,-114.804,-112.500,1652.760,2547.780
833,47844.582000,-50.417,-93.091,-88.958,232.003,-460.547,-129.118,-191.500,1737.760,2556.780
834,47844.599000,-79.786,-88.032,-95.876,190.491,-464.972,-157.912,-331.500,1645.760,2573.780
835,47844.618000,-84.681,-83.984,-96.865,169.155,-464.766,-168.364,-429.500,1677.760,2591.780
836,47844.642000,-67.059,-75.889,-103.784,125.625,-464.337,-196.143,-554.500,1619.760,2582.780
837,47844.660000,-94.470,-60.711,-121.575,104.305,-464.130,-207.580,-678.500,1411.760,2540.780
838,47844.692000,-137.545,-52.617,-127.506,62.609,-457.918,-231.461,-784.500,1550.760,2432.780
839,47844.700000,-114.050,-51.605,-117.622,34.386,-446.037,-245.742,-899.500,1857.760,2332.780
840,47844.718000,-73.912,-35.415,-125.529,-3.433,-430.184,-272.656,-1017.500,1794.760,2233.780
841,47844.745000,-54.333,-22.261,-157.158,-46.353,-410.427,-289.640,-1061.500,1649.760,2202.780
842,47844.760000,-78.807,-29.344,-173.961,-55.127,-402.602,-295.401,-1167.500,1278.760,2070.780
843,47844.783000,-104.260,-11.130,-166.054,-99.986,-388.633,-310.375,-1311.500,1224.760,1895.780
844,47844.799000,-105.239,4.047,-170.008,-117.663,-372.023,-315.004,-1381.500,1400.760,1758.780
845,47844.827000,-83.702,4.047,-190.764,-151.007,-346.559,-323.304,-1438.500,1458.760,1622.780
846,47844.844000,-48.459,23.273,-197.683,-165.627,-337.711,-330.931,-1530.500,1279.760,1454.780
847,47844.867000,-41.606,56.664,-191.753,-200.122,-312.248,-329.366,-1637.500,1061.760,1366.780
848,47844.887000,-49.438,75.889,-208.556,-231.665,-288.746,-327.851,-1687.500,999.760,1349.780
849,47844.904000,-48.459,76.901,-245.127,-241.504,-278.982,-329.657,-1662.500,994.760,1299.780
850,47844.928000,-47.480,94.103,-274.780,-271.237,-254.538,-320.300,-1605.500,1006.760,1253.780
851,47844.943000,-68.038,105.233,-286.641,-279.068,-244.788,-325.095,-1434.500,1321.760,1163.780
852,47844.969000,-86.639,117.375,-273.792,-310.674,-206.772,-327.534,-1318.500,2101.760,1125.780
853,47844.987000,-7.342,112.316,-255.012,-314.723,-188.354,-329.452,-1334.500,2403.760,1165.780
854,47845.9000,90.554,122.435,-259.954,-336.708,-155.275,-320.242,-1430.500,1719.760,1091.780
855,47845.29000,93.491,129.518,-277.745,-349.780,-133.885,-311.176,-1477.500,892.760,963.780
856,47845.57000,19.090,125.470,-284.664,-358.797,-122.202,-305.123,-1411.500,800.760,890.780
857,47845.89000,-13.216,100.174,-294.548,-378.779,-97.850,-293.969,-1350.500,1126.760,749.780
858,47845.108000,23.006,114.340,-277.745,-386.887,-88.115,-283.008,-1319.500,1197.760,591.780
859,47845.114000,53.354,130.530,-270.826,-398.079,-67.716,-269.052,-1329.500,1042.760,535.780
860,47845.128000,40.627,137.613,-282.687,-401.206,-63.828,-260.141,-1358.500,854.760,411.780
861,47845.153000,34.753,145.708,-263.907,-417.236,-53.060,-244.118,-1392.500,788.760,270.780
862,47845.177000,47.480,162.909,-251.058,-416.467,-47.273,-235.279,-1436.500,658.760,154.780
863,47845.193000,47.480,176.063,-247.104,-430.582,-43.300,-213.376,-1462.500,542.760,71.780
864,47845.213000,44.543,185.170,-240.185,-445.625,-35.444,-196.383,-1467.500,507.760,41.780
865,47845.235000,35.732,189.217,-231.290,-444.881,-32.563,-184.586,-1472.500,539.760,26.780
866,47845.253000,30.837,194.277,-229.313,-460.955,-18.893,-167.582,-1464.500,683.760,-6.220
867,47845.275000,26.922,192.253,-231.290,-458.244,-20.868,-153.845,-1453.500,781.760,-42.220
868,47845.299000,26.922,199.336,-230.301,-465.415,-15.985,-137.973,-1415.500,1025.760,-145.220
869,47845.320000,28.880,212.490,-206.579,-470.499,-12.079,-129.027,-1427.500,1368.760,-211.220
870,47845.344000,89.576,229.692,-197.683,-471.928,-6.288,-106.366,-1431.500,1624.760,-269.220
871,47845.360000,135.587,223.621,-195.707,-486.918,-4.237,-89.368,-1358.500,1482.760,-333.220
872,47845.385000,135.587,212.490,-185.822,-487.135,-1.345,-78.539,-1297.500,866.760,-438.220
873,47845.404000,132.650,222.609,-166.054,-487.401,-8.136,-59.821,-1312.500,362.760,-506.220
874,47845.433000,118.945,230.704,-173.961,-487.530,-11.047,-50.955,-1266.500,48.760,-459.220
875,47845.460000,73.912,222.609,-195.707,-488.732,-18.793,-34.189,-1137.500,4.760,-467.220
876,47845.469000,47.480,223.621,-196.695,-493.745,-18.756,-27.210,-1035.500,171.760,-476.220
877,47845.483000,39.648,219.573,-170.008,-492.964,-23.615,-13.435,-778.500,662.760,-508.220
878,47845.497000,61.185,217.549,-144.309,-493.881,-28.443,-14.398,-580.500,1268.760,-542.220
879,47845.524000,102.302,209.455,-128.494,-489.057,-32.362,-8.572,-396.500,1650.760,-634.220
880,47845.542000,115.029,209.455,-126.517,-488.916,-42.034,-11.517,-259.500,1519.760,-829.220
881,47845.562000,103.281,229.692,-117.622,-493.824,-47.797,-7.485,-174.500,1297.760,-1006.220
882,47845.583000,89.576,236.775,-85.992,-492.687,-59.412,-10.445,-103.500,1367.760,-992.220
883,47845.602000,96.428,223.621,-68.201,-487.715,-68.163,-10.523,-70.500,1489.760,-1011.220
884,47845.624000,100.344,230.704,-78.085,-483.635,-74.965,-16.494,-59.500,1460.760,-1154.220
885,47845.642000,91.533,237.787,-82.039,-483.554,-85.607,-15.498,-31.500,1375.760,-1216.220
886,47845.664000,81.744,238.798,-71.166,-481.315,-106.903,-20.435,26.500,1392.760,-1274.220
887,47845.687000,80.765,251.953,-61.282,-475.164,-120.491,-29.388,38.500,1450.760,-1262.220
888,47845.704000,80.765,266.119,-57.328,-475.103,-121.456,-32.341,82.500,1406.760,-1264.220
889,47845.727000,73.912,279.273,-71.166,-472.856,-139.848,-39.251,125.500,1255.760,-1308.220
890,47845.747000,55.312,284.332,-85.004,-463.865,-148.628,-45.306,199.500,1247.760,-1398.220
891,47845.764000,43.564,292.427,-87.969,-457.670,-165.118,-55.241,264.500,1461.760,-1494.220
892,47845.792000,32.795,297.486,-88.958,-448.627,-177.767,-62.278,312.500,1752.760,-1565.220
893,47845.795000,27.901,302.545,-90.934,-446.286,-189.378,-78.057,333.500,1885.760,-1591.220
894,47845.827000,38.669,293.439,-95.876,-440.853,-206.815,-99.790,400.500,2004.760,-1605.220
895,47845.863000,30.837,292.427,-96.865,-426.028,-207.908,-107.927,445.500,1909.760,-1656.220
896,47845.882000,8.321,291.415,-85.992,-420.596,-223.408,-130.647,510.500,1855.760,-1724.220
897,47845.912000,12.237,294.451,-79.073,-405.718,-230.306,-138.778,552.500,1880.760,-1755.220
898,47845.918000,15.174,305.581,-90.934,-390.570,-243.963,-158.719,608.500,1739.760,-1804.220
899,47845.933000,-4.405,304.569,-97.853,-387.365,-246.879,-172.555,666.500,1615.760,-1842.220
900,47845.950000,-29.859,304.569,-94.888,-362.415,-258.689,-194.641,704.500,1771.760,-1877.220
901,47845.978000,-19.090,308.617,-82.039,-354.344,-262.618,-206.592,735.500,1893.760,-1843.220
902,47846.5000,6.363,308.617,-94.888,-340.152,-265.618,-233.420,740.500,1861.760,-1840.220
903,47846.20000,-15.174,312.664,-112.680,-317.204,-270.637,-256.463,765.500,1590.760,-1891.220
904,47846.38000,-46.501,309.628,-106.749,-303.323,-273.655,-265.565,810.500,1590.760,-1915.220
905,47846.60000,-24.964,303.557,-112.680,-278.384,-276.755,-291.598,841.500,1627.760,-1851.220
906,47846.78000,-18.111,312.664,-144.309,-272.374,-276.800,-299.580,891.500,1388.760,-1878.220
907,47846.103000,-46.501,313.676,-151.228,-242.588,-273.171,-326.692,991.500,1402.760,-1872.220
908,47846.124000,-43.564,306.593,-149.251,-223.824,-273.330,-336.868,1094.500,1518.760,-1748.220
909,47846.147000,-39.648,297.486,-173.961,-198.056,-267.736,-358.988,1177.500,1536.760,-1727.220
910,47846.153000,-73.912,302.545,-187.799,-165.406,-252.523,-388.133,1237.500,1677.760,-1715.220
911,47846.178000,-73.912,294.451,-161.112,-156.421,-241.946,-404.056,1384.500,2294.760,-1552.220
912,47846.208000,-1.468,281.296,-174.950,-122.026,-211.276,-429.311,1502.500,2499.760,-1367.220
913,47846.223000,56.291,291.415,-198.672,-106.269,-199.798,-441.417,1595.500,2046.760,-1307.220
914,47846.245000,61.185,285.344,-189.776,-68.961,-181.739,-458.834,1695.500,1424.760,-1193.220
915,47846.265000,40.627,262.071,-199.660,-50.310,-177.065,-465.076,1749.500,925.760,-1074.220
916,47846.303000,25.943,250.941,-222.394,-15.089,-161.899,-473.593,1774.500,710.760,-1009.220
917,47846.322000,20.069,253.976,-228.324,-4.274,-158.122,-478.711,1850.500,705.760,-901.220
918,47846.328000,8.321,241.834,-227.336,36.758,-142.045,-484.378,1957.500,809.760,-762.220
919,47846.345000,20.069,216.538,-239.197,75.842,-126.918,-490.009,1986.500,818.760,-711.220
920,47846.368000,29.859,206.419,-246.116,99.194,-120.363,-486.492,2010.500,719.760,-642.220
921,47846.385000,21.048,202.372,-246.116,131.299,-106.149,-484.124,2053.500,652.760,-519.220
922,47846.407000,15.174,184.158,-250.069,150.789,-99.556,-483.492,2109.500,708.760,-407.220
923,47846.425000,27.901,167.968,-259.954,195.536,-84.493,-477.410,2129.500,682.760,-340.220
924,47846.448000,31.816,167.968,-256.988,214.949,-78.873,-471.853,2149.500,650.760,-287.220
925,47846.462000,16.153,153.802,-249.081,249.816,-64.695,-459.689,2202.500,778.760,-191.220
926,47846.489000,37.690,133.565,-248.093,287.548,-44.740,-446.597,2234.500,809.760,-98.220
927,47846.507000,68.038,127.494,-241.174,313.758,-39.184,-438.207,2241.500,728.760,27.780
928,47846.529000,62.164,112.316,-237.220,349.459,-31.799,-414.236,2246.500,551.760,92.780
929,47846.553000,47.480,92.079,-237.220,360.958,-28.048,-402.631,2244.500,602.760,211.780
930,47846.572000,64.122,86.008,-235.243,397.699,-27.443,-378.670,2255.500,573.760,335.780
931,47846.589000,75.870,72.854,-221.405,422.766,-22.856,-360.414,2262.500,431.760,424.780
932,47846.614000,66.080,53.628,-215.475,442.839,-24.037,-333.203,2250.500,377.760,507.780
933,47846.649000,62.164,49.581,-197.683,465.978,-28.142,-311.950,2239.500,447.760,621.780
934,47846.666000,59.228,9.107,-184.834,488.917,-29.354,-280.852,2203.500,569.760,734.780
935,47846.679000,76.849,-2.024,-170.008,513.858,-35.421,-249.784,2137.500,654.760,832.780
936,47846.727000,87.618,-12.142,-149.251,516.387,-38.374,-225.214,2104.500,635.760,883.780
937,47846.730000,73.912,-26.308,-132.448,534.515,-54.056,-191.060,2028.500,541.760,984.780
938,47846.739000,64.122,-47.557,-122.564,543.143,-66.729,-174.462,1930.500,486.760,1083.780
939,47846.759000,75.870,-65.771,-111.691,556.396,-80.429,-142.194,1842.500,594.760,1196.780
940,47846.782000,82.723,-83.984,-100.819,552.260,-92.021,-123.402,1707.500,585.760,1291.780
941,47846.804000,85.660,-95.115,-81.050,556.838,-116.281,-92.937,1567.500,528.760,1357.780
942,47846.822000,67.059,-99.162,-89.946,551.797,-143.346,-70.174,1411.500,404.760,1443.780
943,47846.844000,31.816,-117.375,-93.900,550.657,-153.993,-55.374,1281.500,534.760,1550.780
944,47846.867000,28.880,-118.387,-95.876,541.832,-183.919,-38.447,1166.500,731.760,1675.780
945,47846.885000,34.753,-121.423,-99.830,538.061,-201.298,-37.376,1109.500,1073.760,1731.780
946,47846.907000,26.922,-126.482,-101.807,524.421,-230.207,-25.287,986.500,1234.760,1804.780
947,47846.922000,31.816,-132.553,-95.876,510.830,-245.563,-23.060,878.500,1352.760,1869.780
948,47846.940000,30.837,-136.601,-99.830,491.502,-275.376,-20.714,748.500,1271.760,1925.780
949,47846.960000,18.111,-136.601,-99.830,490.799,-307.293,-19.680,643.500,1112.760,1990.780
950,47846.983000,-11.258,-137.613,-94.888,457.699,-323.435,-20.060,559.500,1024.760,2077.780
951,47847.5000,-34.753,-134.577,-97.853,431.694,-353.177,-27.440,465.500,1098.760,2132.780
952,47847.33000,-35.732,-134.577,-95.876,416.267,-368.508,-32.072,370.500,1259.760,2157.780
953,47847.65000,-36.711,-130.530,-88.958,385.359,-389.494,-43.314,320.500,1303.760,2162.780
954,47847.79000,-53.354,-130.530,-85.992,374.876,-402.931,-51.973,206.500,1328.760,2151.780
955,47847.93000,-68.038,-127.494,-79.073,338.147,-418.054,-69.025,70.500,1437.760,2126.780
956,47847.105000,-53.354,-129.518,-78.085,323.811,-432.420,-80.568,-73.500,1603.760,2128.780
957,47847.119000,-43.564,-125.470,-81.050,289.115,-440.781,-105.540,-237.500,1553.760,2112.780
958,47847.147000,-68.038,-118.387,-84.015,254.462,-448.172,-133.468,-381.500,1456.760,2089.780
959,47847.169000,-83.702,-124.459,-83.027,231.161,-450.852,-141.913,-503.500,1621.760,2091.780
960,47847.192000,-54.333,-119.399,-92.911,201.426,-457.317,-171.897,-654.500,1647.760,2066.780
961,47847.207000,-59.228,-102.198,-97.853,184.038,-455.209,-185.374,-787.500,1428.760,1991.780
962,47847.232000,-116.987,-92.079,-90.934,139.519,-449.932,-215.111,-837.500,1441.760,1949.780
963,47847.249000,-120.902,-88.032,-72.154,123.057,-447.835,-225.651,-926.500,1876.760,1863.780
964,47847.271000,-56.291,-96.126,-70.178,90.295,-432.986,-261.513,-1083.500,2084.760,1764.780
965,47847.294000,-13.216,-86.008,-94.888,54.425,-421.991,-285.503,-1278.500,1522.760,1669.780
966,47847.327000,-63.143,-52.617,-100.819,32.940,-415.017,-291.038,-1466.500,1166.760,1624.780
967,47847.345000,-78.807,-33.391,-122.564,1.867,-401.169,-311.178,-1560.500,1356.760,1663.780
968,47847.359000,-44.543,-19.225,-131.459,-15.697,-389.391,-319.741,-1640.500,1533.760,1623.780
969,47847.380000,-23.006,9.107,-150.239,-57.631,-366.738,-338.714,-1721.500,1457.760,1594.780
970,47847.397000,-16.153,30.356,-160.124,-84.087,-354.885,-342.198,-1808.500,1414.760,1586.780
971,47847.419000,11.258,45.534,-170.008,-108.546,-334.337,-352.618,-1858.500,1287.760,1578.780
972,47847.442000,20.069,64.759,-192.741,-139.973,-325.347,-350.104,-1964.500,941.760,1525.780
973,47847.457000,-14.195,76.901,-223.382,-174.416,-303.753,-349.520,-1998.500,791.760,1444.780
974,47847.470000,-26.922,75.889,-229.313,-209.889,-280.217,-346.951,-1973.500,1125.760,1346.780
975,47847.498000,6.363,87.020,-219.429,-225.566,-268.461,-351.610,-2029.500,1315.760,1247.780
976,47847.518000,30.837,116.364,-250.069,-258.260,-244.960,-340.230,-2072.500,1039.760,1134.780
977,47847.538000,13.216,124.459,-268.849,-275.096,-232.238,-335.024,-2088.500,866.760,1063.780
978,47847.560000,9.300,131.542,-269.838,-302.941,-209.752,-320.776,-2111.500,887.760,945.780
979,47847.582000,13.216,156.838,-263.907,-318.772,-201.876,-314.598,-2133.500,894.760,885.780
980,47847.604000,11.258,183.146,-288.618,-341.802,-178.472,-296.498,-2131.500,820.760,780.780
981,47847.622000,0.489,182.134,-290.595,-363.861,-161.851,-274.469,-2057.500,855.760,711.780
982,47847.644000,8.321,181.123,-280.710,-379.709,-152.041,-268.293,-2030.500,941.760,638.780
983,47847.677000,23.985,198.324,-264.896,-401.759,-138.324,-245.277,-2007.500,859.760,551.780
984,47847.709000,25.943,213.502,-273.792,-409.849,-128.588,-235.301,-1957.500,650.760,489.780
985,47847.709000,12.237,218.561,-268.849,-420.095,-117.878,-214.458,-1895.500,639.760,458.780
986,47847.727000,20.069,228.680,-261.931,-427.215,-109.120,-203.514,-1852.500,608.760,422.780
987,47847.749000,17.132,244.870,-242.162,-438.534,-99.375,-176.745,-1802.500,575.760,379.780
988,47847.772000,14.195,256.000,-228.324,-450.728,-89.614,-155.867,-1777.500,582.760,360.780
989,47847.795000,10.279,262.071,-216.463,-458.870,-79.882,-142.936,-1765.500,626.760,343.780
990,47847.818000,28.880,258.024,-220.417,-467.192,-74.999,-117.199,-1785.500,518.760,266.780
991,47847.833000,43.564,266.119,-212.510,-467.470,-71.143,-103.416,-1785.500,107.760,184.780
992,47847.858000,18.111,277.249,-206.579,-474.709,-70.135,-81.631,-1744.500,-146.240,157.780
993,47847.878000,-10.279,288.379,-198.672,-481.854,-66.217,-66.743,-1683.500,9.760,145.780
994,47847.893000,-3.426,293.439,-198.672,-486.193,-59.431,-46.000,-1561.500,224.760,64.780
995,47847.913000,1.468,286.356,-198.672,-487.310,-59.429,-38.105,-1415.500,365.760,-80.220
996,47847.931000,-4.405,279.273,-187.799,-488.652,-61.377,-16.421,-1249.500,553.760,-238.220
997,47847.952000,0.489,266.119,-153.205,-490.799,-61.370,-5.554,-1157.500,688.760,-308.220
998,47847.974000,7.342,258.024,-140.355,-485.030,-67.236,3.211,-974.500,997.760,-493.220
999,47847.999000,21.048,257.012,-130.471,-486.085,-72.071,10.127,-831.500,1285.760,-780.220
1000,47848.27000,17.132,259.036,-121.575,-489.010,-82.691,15.113,-732.500,1460.760,-1089.220
