Sample, Time, ACCX, ACCY, ACCZ, MAGX, MAGY, MAGZ, GYRX, GYRY, GYRZ
0,47586.497000,-59.228,-2.024,-239.197,49.621,-395.808,-304.153,-17.500,2.760,10.780
1,47586.520000,-56.291,-4.047,-239.197,51.718,-401.625,-309.106,-23.500,0.760,8.780
2,47586.540000,-57.270,-2.024,-242.162,50.669,-395.813,-308.110,-25.500,-7.240,4.780
3,47586.565000,-56.291,-3.036,-242.162,47.769,-399.656,-308.054,-22.500,-14.240,4.780
4,47586.586000,-58.249,-2.024,-243.151,55.623,-400.693,-309.176,-20.500,-8.240,6.780
5,47586.603000,-58.249,-2.024,-242.162,51.683,-399.691,-308.123,-15.500,1.760,8.780
6,47586.626000,-57.270,-1.012,-243.151,47.708,-396.756,-306.087,-10.500,-7.240,9.780
7,47586.643000,-59.228,-1.012,-244.139,46.825,-397.709,-310.993,-4.500,0.760,8.780
8,47586.666000,-57.270,-1.012,-241.174,48.739,-398.697,-308.072,-0.500,-1.240,8.780
9,47586.683000,-57.270,-2.024,-242.162,53.613,-396.807,-308.161,-3.500,-5.240,5.780
10,47586.706000,-58.249,-2.024,-243.151,46.791,-399.647,-308.036,-0.500,-6.240,6.780
11,47586.731000,-58.249,-1.012,-241.174,46.809,-401.582,-308.035,-3.500,-13.240,3.780
12,47586.752000,-58.249,-2.024,-242.162,46.817,-400.613,-309.020,-4.500,-3.240,0.780
13,47586.771000,-59.228,-3.036,-242.162,45.743,-397.706,-305.067,-1.500,1.760,-0.220
14,47586.800000,-58.249,-2.024,-242.162,48.774,-400.631,-309.055,-0.500,-1.240,-5.220
15,47586.822000,-57.270,-2.024,-241.174,52.636,-402.605,-305.183,1.500,-1.240,-6.220
16,47586.841000,-57.270,-2.024,-241.174,53.657,-397.772,-310.129,-0.500,-1.240,-4.220
17,47586.856000,-56.291,-2.024,-241.174,46.729,-396.747,-306.070,-1.500,-2.240,-6.220
18,47586.878000,-60.207,-3.036,-239.197,47.830,-400.620,-311.007,-2.500,-13.240,-8.220
19,47586.899000,-57.270,-2.024,-240.185,49.743,-397.737,-310.060,-4.500,-1.240,-11.220
20,47586.921000,-57.270,-2.024,-241.174,49.778,-399.671,-311.043,-1.500,8.760,-14.220
21,47586.938000,-58.249,-3.036,-241.174,50.686,-395.812,-309.094,-3.500,4.760,-12.220
22,47586.961000,-57.270,-3.036,-239.197,44.808,-400.598,-306.031,-3.500,3.760,-10.220
23,47586.981000,-56.291,-3.036,-239.197,52.731,-401.632,-311.093,-2.500,3.760,-10.220
24,47586.996000,-57.270,-3.036,-241.174,46.816,-398.678,-310.007,-7.500,-6.240,-12.220
25,47587.13000,-58.249,-2.024,-241.174,49.682,-396.772,-307.107,-14.500,-10.240,-15.220
26,47587.36000,-58.249,-2.024,-241.174,51.735,-399.688,-311.077,-15.500,-5.240,-13.220
27,47587.68000,-56.291,-2.024,-240.185,55.641,-400.692,-310.161,-14.500,7.760,-18.220
28,47587.87000,-55.312,-3.036,-242.162,51.656,-396.789,-308.126,-17.500,-3.240,-21.220
29,47587.101000,-57.270,-2.024,-241.174,47.778,-400.623,-308.053,-19.500,-14.240,-21.220
30,47587.123000,-58.249,-2.024,-242.162,49.691,-397.740,-307.106,-16.500,-2.240,-16.220
31,47587.146000,-56.291,-2.024,-243.151,52.661,-397.764,-309.127,-8.500,16.760,-13.220
32,47587.168000,-55.312,-3.036,-242.162,49.787,-402.574,-310.055,-6.500,14.760,-13.220
33,47587.183000,-55.312,-1.012,-242.162,48.800,-399.662,-311.025,-2.500,7.760,-11.220
34,47587.206000,-56.291,-2.024,-242.162,54.644,-398.749,-310.145,-0.500,13.760,-7.220
35,47587.221000,-55.312,-2.024,-242.162,52.687,-398.731,-310.111,0.500,10.760,-7.220
36,47587.248000,-55.312,-2.024,-240.185,44.798,-395.760,-308.006,-1.500,0.760,-5.220
37,47587.262000,-55.312,-2.024,-241.174,49.743,-399.673,-309.073,-2.500,-0.240,-4.220
38,47587.283000,-55.312,-2.024,-241.174,53.692,-399.706,-311.112,-5.500,-2.240,-6.220
39,47587.306000,-56.291,-2.024,-242.162,51.709,-398.722,-310.093,-9.500,-3.240,-6.220
40,47587.327000,-55.312,-1.012,-241.174,48.756,-396.761,-310.044,-7.500,5.760,-5.220
41,47587.348000,-54.333,-2.024,-242.162,46.755,-395.777,-308.040,-8.500,6.760,-4.220
42,47587.365000,-55.312,-1.012,-241.174,50.747,-396.776,-312.048,-2.500,7.760,-4.220
43,47587.386000,-55.312,-2.024,-241.174,49.708,-397.739,-308.090,-1.500,3.760,-4.220
44,47587.403000,-54.333,-2.024,-242.162,48.747,-395.793,-310.044,-1.500,0.760,-4.220
45,47587.417000,-56.291,-2.024,-239.197,52.661,-395.829,-310.114,-1.500,-0.240,-3.220
46,47587.436000,-54.333,-1.012,-241.174,53.692,-397.770,-312.099,-2.500,7.760,-2.220
47,47587.468000,-53.354,-1.012,-240.185,46.859,-395.771,-313.949,-6.500,6.760,-1.220
48,47587.506000,-54.333,-1.012,-241.174,47.829,-396.749,-312.980,-7.500,4.760,-3.220
49,47587.520000,-52.375,-1.012,-243.151,55.622,-396.822,-311.149,-7.500,8.760,-2.220
50,47587.533000,-53.354,-2.024,-243.151,57.614,-396.838,-313.154,-7.500,4.760,0.780
51,47587.553000,-53.354,-1.012,-244.139,42.937,-396.704,-312.894,-3.500,4.760,2.780
52,47587.578000,-53.354,-1.012,-243.151,46.859,-397.707,-312.962,-2.500,7.760,9.780
53,47587.597000,-54.333,-1.012,-243.151,51.752,-397.752,-313.049,5.500,7.760,13.780
54,47587.615000,-55.312,-1.012,-241.174,51.682,-393.884,-311.083,5.500,9.760,17.780
55,47587.637000,-56.291,-1.012,-241.174,54.653,-397.780,-311.131,4.500,9.760,18.780
56,47587.653000,-57.270,-1.012,-244.139,52.764,-395.823,-316.022,4.500,6.760,17.780
57,47587.671000,-56.291,-2.024,-241.174,52.721,-396.793,-313.067,4.500,15.760,13.780
58,47587.693000,-55.312,-3.036,-240.185,56.600,-394.895,-312.153,-3.500,5.760,7.780
59,47587.711000,-57.270,-2.024,-242.162,47.838,-397.716,-312.980,-5.500,9.760,5.780
60,47587.733000,-55.312,-2.024,-243.151,47.743,-396.754,-308.057,-4.500,12.760,5.780
61,47587.765000,-55.312,-2.024,-243.151,48.816,-395.789,-313.984,-0.500,14.760,5.780
62,47587.787000,-55.312,-1.012,-242.162,47.793,-390.943,-313.971,3.500,11.760,3.780
63,47587.815000,-54.333,-1.012,-241.174,57.709,-397.800,-318.076,3.500,5.760,3.780
64,47587.833000,-54.333,-2.024,-241.174,48.816,-397.725,-312.997,-4.500,3.760,3.780
65,47587.852000,-54.333,-2.024,-240.185,54.652,-395.845,-312.118,-10.500,-13.240,0.780
66,47587.861000,-55.312,-3.036,-243.151,48.807,-394.822,-313.985,-9.500,-14.240,-4.220
67,47587.881000,-56.291,-2.024,-242.162,47.802,-393.847,-312.983,-3.500,4.760,-5.220
68,47587.911000,-55.312,-1.012,-242.162,51.682,-393.884,-311.083,-1.500,15.760,-3.220
69,47587.927000,-53.354,-2.024,-242.162,49.690,-393.868,-309.079,-1.500,3.760,-1.220
70,47587.948000,-52.375,-2.024,-241.174,46.850,-394.804,-313.950,-1.500,-8.240,-1.220
71,47587.971000,-54.333,-2.024,-242.162,59.571,-396.855,-313.188,-0.500,-14.240,3.780
72,47587.986000,-54.333,-1.012,-242.162,48.755,-394.825,-311.030,1.500,-4.240,5.780
73,47588.3000,-53.354,-1.012,-241.174,51.716,-393.882,-313.053,-0.500,-11.240,4.780
74,47588.32000,-54.333,-1.012,-243.151,45.819,-392.862,-311.965,-2.500,-18.240,4.780
75,47588.51000,-54.333,-2.024,-242.162,54.635,-395.846,-311.133,-2.500,-23.240,5.780
76,47588.66000,-55.312,-2.024,-242.162,50.782,-396.774,-314.017,-1.500,-24.240,4.780
77,47588.89000,-57.270,-3.036,-241.174,46.789,-393.840,-310.997,1.500,-23.240,4.780
78,47588.102000,-58.249,-3.036,-239.197,47.829,-396.749,-312.980,-0.500,-15.240,5.780
79,47588.133000,-55.312,-2.024,-240.185,49.724,-391.930,-312.035,-0.500,-4.240,5.780
80,47588.156000,-54.333,-2.024,-242.162,49.742,-393.865,-312.033,-3.500,-0.240,6.780
81,47588.176000,-55.312,-3.036,-244.139,47.777,-396.752,-310.026,-9.500,-13.240,0.780
82,47588.193000,-57.270,-1.012,-241.174,51.761,-398.719,-313.048,-11.500,-11.240,-6.220
83,47588.211000,-57.270,-1.012,-243.151,56.696,-397.793,-316.090,-8.500,3.760,-9.220
84,47588.236000,-54.333,-1.012,-243.151,45.873,-400.603,-310.972,-6.500,14.760,-8.220
85,47588.258000,-54.333,-2.024,-243.151,47.846,-396.748,-313.965,-4.500,-7.240,-3.220
86,47588.271000,-56.291,-2.024,-243.151,52.704,-394.858,-313.069,-4.500,-19.240,-1.220
87,47588.285000,-56.291,-2.024,-243.151,52.739,-396.792,-314.052,1.500,-15.240,1.780
88,47588.312000,-54.333,-1.012,-243.151,44.851,-397.692,-309.973,4.500,3.760,-0.220
89,47588.330000,-54.333,-1.012,-243.151,45.855,-396.732,-311.961,5.500,-3.240,-3.220
90,47588.352000,-55.312,-1.012,-242.162,51.751,-395.816,-314.035,5.500,-12.240,0.780
91,47588.375000,-56.291,-2.024,-239.197,45.829,-395.766,-310.977,5.500,-14.240,4.780
92,47588.392000,-57.270,-2.024,-239.197,54.653,-397.780,-311.131,6.500,-3.240,4.780
93,47588.430000,-55.312,-3.036,-241.174,52.739,-396.792,-314.052,3.500,-3.240,5.780
94,47588.438000,-55.312,-2.024,-243.151,53.691,-393.899,-314.072,-2.500,-9.240,1.780
95,47588.468000,-56.291,-2.024,-243.151,47.820,-395.781,-312.981,-2.500,-9.240,-1.220
96,47588.481000,-57.270,-1.012,-243.151,46.808,-397.710,-310.008,-2.500,-9.240,-0.220
97,47588.502000,-55.312,-1.012,-243.151,52.739,-398.728,-313.065,1.500,-3.240,-1.220
98,47588.525000,386.203,238.798,-124.541,40.020,-402.484,-310.867,-427.500,151.760,2.780
99,47588.545000,-190.409,-93.091,-243.151,30.828,-416.944,-281.154,-707.500,-2259.240,530.780
100,47588.562000,-290.264,-33.391,-288.618,33.903,-420.835,-287.110,92.500,120.760,-278.220
101,47588.582000,-74.891,10.119,-246.116,45.760,-399.641,-305.065,497.500,1633.760,-246.220
102,47588.605000,63.143,-69.818,-216.463,42.927,-393.801,-313.882,181.500,1092.760,38.780
103,47588.627000,-28.880,52.617,-245.127,40.978,-390.879,-315.820,-131.500,-24.240,-101.220
104,47588.647000,-64.122,9.107,-259.954,44.927,-392.849,-316.872,-17.500,-47.240,13.780
105,47588.670000,-50.417,-2.024,-253.035,43.888,-393.811,-312.914,-26.500,-131.240,-3.220
106,47588.685000,-69.017,5.059,-258.965,38.001,-397.630,-309.852,-42.500,-239.240,9.780
107,47588.707000,-74.891,3.036,-260.942,39.966,-394.744,-311.859,15.500,-24.240,11.780
108,47588.725000,-59.228,2.024,-252.046,38.027,-398.596,-310.836,53.500,85.760,5.780
109,47588.747000,-51.396,0.000,-246.116,40.892,-390.884,-310.896,60.500,61.760,-7.220
110,47588.761000,-49.438,1.012,-243.151,40.953,-395.720,-311.876,51.500,-17.240,-3.220
111,47588.781000,-54.333,0.000,-242.162,43.898,-396.714,-311.927,41.500,-84.240,3.780
112,47588.808000,-60.207,-1.012,-241.174,46.834,-398.677,-310.992,44.500,-67.240,-0.220
113,47588.826000,-59.228,-2.024,-239.197,45.881,-399.634,-311.958,49.500,-12.240,-5.220
114,47588.846000,-55.312,-1.012,-238.208,47.777,-396.752,-310.026,48.500,4.760,-8.220
115,47588.874000,-54.333,0.000,-236.232,41.975,-396.694,-313.861,41.500,0.760,-8.220
116,47588.913000,-53.354,-1.012,-235.243,47.751,-397.721,-308.056,26.500,-25.240,-9.220
117,47588.930000,-55.312,-3.036,-237.220,48.807,-394.822,-313.985,14.500,-33.240,-9.220
118,47588.935000,-56.291,-2.024,-234.255,44.816,-397.694,-308.004,8.500,-15.240,-7.220
119,47588.957000,-55.312,-1.012,-235.243,45.838,-400.604,-309.003,2.500,-4.240,-4.220
120,47588.977000,-52.375,-1.012,-235.243,48.782,-399.663,-310.041,-4.500,-11.240,-1.220
121,47589.0,-54.333,-1.012,-236.232,27.255,-397.531,-310.647,-1798.500,30.760,606.780
122,47589.15000,129.713,21.249,-125.529,15.106,-430.356,-270.031,-1174.500,-2944.240,740.780
123,47589.32000,-435.151,-136.601,-297.514,19.998,-428.465,-271.104,-298.500,-1166.240,-364.220
124,47589.55000,-209.010,61.723,-269.838,35.865,-406.334,-295.037,625.500,1582.760,-383.220
125,47589.77000,-63.143,-64.759,-247.104,37.067,-400.522,-310.817,781.500,2034.760,-263.220
126,47589.100000,116.008,-31.368,-204.602,30.258,-389.811,-318.584,-256.500,630.760,60.780
127,47589.122000,-36.711,91.067,-256.000,32.208,-396.604,-314.673,-137.500,-151.240,-45.220
128,47589.142000,-65.101,-2.024,-264.896,33.177,-393.710,-315.678,-82.500,-222.240,-30.220
129,47589.172000,-53.354,2.024,-259.954,38.989,-400.542,-308.882,-107.500,-385.240,-34.220
130,47589.195000,-82.723,9.107,-274.780,33.152,-398.551,-311.734,-31.500,-80.240,2.780
131,47589.213000,-82.723,10.119,-272.803,34.113,-396.625,-311.754,45.500,148.760,10.780
132,47589.220000,-60.207,10.119,-256.000,33.195,-395.645,-315.676,62.500,151.760,-1.220
133,47589.240000,-48.459,10.119,-252.046,32.112,-393.706,-310.737,74.500,68.760,-13.220
134,47589.268000,-46.501,5.059,-247.104,40.045,-397.643,-314.811,62.500,-54.240,-0.220
135,47589.291000,-55.312,5.059,-249.081,36.088,-398.578,-311.786,61.500,-103.240,4.780
136,47589.308000,-62.164,4.047,-244.139,36.010,-397.614,-307.848,74.500,-56.240,-0.220
137,47589.331000,-63.143,2.024,-239.197,36.045,-399.548,-308.831,82.500,24.760,-5.220
138,47589.346000,-53.354,1.012,-233.266,39.993,-397.646,-311.856,77.500,47.760,-9.220
139,47589.369000,-52.375,0.000,-234.255,40.018,-396.677,-313.827,57.500,12.760,-13.220
140,47589.384000,-54.333,0.000,-234.255,35.083,-397.602,-310.785,38.500,-31.240,-20.220
141,47589.405000,-54.333,0.000,-235.243,41.923,-396.697,-310.907,30.500,-37.240,-22.220
142,47589.423000,-54.333,0.000,-234.255,40.945,-396.688,-310.890,21.500,-20.240,-22.220
143,47589.446000,-53.354,0.000,-233.266,43.898,-396.714,-311.927,14.500,8.760,-16.220
144,47589.468000,-52.375,0.000,-234.255,36.045,-399.548,-308.831,12.500,11.760,-8.220
145,47589.491000,-53.354,0.000,-234.255,44.843,-400.597,-308.001,0.500,-10.240,-1.220
146,47589.508000,-54.333,0.000,-235.243,38.944,-395.705,-308.887,-12.500,-16.240,4.780
147,47589.528000,-57.270,-1.012,-236.232,38.036,-399.564,-310.835,-21.500,-1.240,6.780
148,47589.573000,-55.312,0.000,-238.208,41.836,-394.766,-306.970,-24.500,20.760,4.780
149,47589.592000,-54.333,0.000,-240.185,39.984,-396.678,-311.857,-26.500,26.760,2.780
150,47589.595000,-54.333,0.000,-242.162,40.954,-397.656,-310.889,-29.500,19.760,3.780
151,47589.616000,-54.333,0.000,-245.127,42.937,-398.640,-311.907,-33.500,-2.240,2.780
152,47589.633000,-54.333,0.000,-248.093,35.092,-398.570,-310.784,-35.500,-14.240,0.780
153,47589.656000,-54.333,1.012,-249.081,37.984,-397.631,-308.867,-31.500,-14.240,-3.220
154,47589.673000,-53.354,2.024,-251.058,40.989,-399.590,-311.872,-23.500,-0.240,-4.220
155,47589.696000,-47.480,0.000,-253.035,35.091,-396.634,-311.771,-15.500,0.760,-2.220
156,47589.712000,-41.606,0.000,-256.988,39.032,-399.572,-311.837,-15.500,-31.240,1.780
157,47589.738000,-39.648,1.012,-257.977,35.992,-395.679,-307.850,3.500,-59.240,17.780
158,47589.742000,-37.690,1.012,-259.954,36.061,-395.676,-311.789,29.500,-53.240,47.780
159,47589.775000,-26.922,2.024,-263.907,35.992,-397.615,-306.863,46.500,-52.240,60.780
160,47589.792000,-25.943,1.012,-262.919,37.976,-400.535,-306.895,73.500,-61.240,95.780
161,47589.815000,-26.922,0.000,-262.919,39.889,-397.652,-305.948,105.500,-34.240,145.780
162,47589.837000,-15.174,1.012,-263.907,32.131,-401.448,-307.775,140.500,0.760,197.780
163,47589.855000,-15.174,0.000,-257.977,39.933,-400.553,-306.930,168.500,-36.240,255.780
164,47589.877000,-17.132,-1.012,-257.977,37.976,-400.535,-306.895,198.500,-43.240,321.780
165,47589.900000,-14.195,-1.012,-256.000,32.061,-399.516,-304.823,226.500,-39.240,386.780
166,47589.932000,-17.132,-3.036,-256.000,25.100,-400.428,-297.807,246.500,-48.240,444.780
167,47589.951000,-20.069,-2.024,-252.046,27.171,-407.215,-300.789,252.500,-48.240,483.780
168,47589.970000,-20.069,0.000,-251.058,23.178,-404.280,-297.769,257.500,-46.240,503.780
169,47589.990000,-24.964,-2.024,-250.069,22.234,-404.269,-299.721,261.500,-30.240,553.780
170,47590.8000,-23.006,-1.012,-248.093,11.428,-403.206,-297.562,273.500,11.760,591.780
171,47590.26000,-20.069,1.012,-246.116,18.347,-405.200,-300.636,279.500,5.760,636.780
172,47590.42000,-25.943,-2.024,-246.116,8.423,-405.119,-292.584,287.500,-0.240,693.780
173,47590.73000,-30.837,0.000,-246.116,4.587,-402.175,-298.427,295.500,43.760,736.780
174,47590.91000,-29.859,1.012,-243.151,-6.175,-407.885,-295.276,298.500,91.760,787.780
175,47590.111000,-25.943,-1.012,-243.151,-9.094,-405.921,-297.196,293.500,68.760,824.780
176,47590.126000,-33.774,-1.012,-245.127,-15.026,-404.904,-294.139,300.500,54.760,868.780
177,47590.150000,-35.732,3.036,-243.151,-28.717,-399.939,-296.856,304.500,69.760,886.780
178,47590.172000,-37.690,3.036,-244.139,-27.781,-402.854,-292.931,305.500,73.760,930.780
179,47590.199000,-43.564,0.000,-246.116,-33.627,-399.896,-295.784,314.500,61.760,958.780
180,47590.216000,-50.417,3.036,-244.139,-42.478,-394.978,-295.634,322.500,95.760,989.780
181,47590.241000,-48.459,3.036,-242.162,-54.184,-398.741,-295.422,323.500,89.760,1010.780
182,47590.283000,-51.396,4.047,-241.174,-63.918,-396.714,-299.190,321.500,58.760,1022.780
183,47590.298000,-59.228,4.047,-235.243,-64.983,-394.774,-295.236,310.500,86.760,1036.780
184,47590.298000,-59.228,2.024,-236.232,-75.731,-388.868,-298.990,299.500,96.760,1032.780
185,47590.311000,-67.059,3.036,-235.243,-78.631,-392.711,-298.934,290.500,88.760,1031.780
186,47590.332000,-76.849,1.012,-232.278,-81.585,-386.877,-300.858,286.500,139.760,1025.780
187,47590.356000,-66.080,3.036,-229.313,-97.276,-384.801,-299.598,264.500,128.760,1002.780
188,47590.373000,-62.164,3.036,-224.371,-106.039,-383.751,-302.398,230.500,-30.240,958.780
189,47590.387000,-69.996,0.000,-226.347,-115.037,-379.810,-293.383,195.500,-223.240,922.780
190,47590.406000,-84.681,1.012,-231.290,-112.041,-380.801,-296.388,183.500,-269.240,902.780
191,47590.431000,-107.197,5.059,-227.336,-121.922,-377.814,-292.279,180.500,-112.240,880.780
192,47590.453000,-113.071,6.071,-230.301,-132.650,-379.650,-293.072,193.500,28.760,832.780
193,47590.477000,-98.386,1.012,-227.336,-141.475,-375.699,-293.905,186.500,-49.240,759.780
194,47590.503000,-99.365,0.000,-225.359,-141.562,-371.832,-290.954,173.500,-111.240,703.780
195,47590.526000,-113.071,0.000,-227.336,-152.352,-368.832,-290.767,138.500,-166.240,674.780
196,47590.538000,-116.008,2.024,-224.371,-153.408,-369.796,-285.825,120.500,-138.240,595.780
197,47590.556000,-120.902,0.000,-222.394,-154.343,-370.752,-287.776,96.500,-108.240,506.780
198,47590.585000,-120.902,-1.012,-222.394,-155.348,-371.713,-285.788,64.500,-52.240,405.780
199,47590.603000,-116.008,-1.012,-222.394,-162.198,-369.715,-286.654,25.500,-53.240,319.780
200,47590.623000,-121.881,0.000,-220.417,-166.155,-368.714,-284.616,-8.500,-98.240,236.780
201,47590.660000,-122.860,0.000,-224.371,-161.288,-371.663,-281.745,-36.500,-130.240,163.780
202,47590.662000,-123.839,2.024,-224.371,-165.228,-368.725,-281.679,-56.500,-135.240,87.780
203,47590.688000,-127.755,3.036,-225.359,-170.120,-370.617,-280.606,-66.500,-133.240,49.780
204,47590.703000,-124.818,3.036,-223.382,-168.171,-373.539,-278.668,-73.500,-107.240,-23.220
205,47590.721000,-118.945,2.024,-222.394,-165.279,-374.536,-275.765,-88.500,-85.240,-100.220
206,47590.735000,-120.902,2.024,-223.382,-172.137,-373.506,-275.645,-120.500,-87.240,-182.220
207,47590.762000,-121.881,4.047,-226.347,-167.270,-374.520,-273.761,-152.500,-82.240,-260.220
208,47590.790000,-119.924,5.059,-228.324,-163.321,-376.489,-274.813,-180.500,-78.240,-349.220
209,47590.807000,-120.902,6.071,-230.301,-157.511,-377.514,-270.976,-204.500,-64.240,-428.220
210,47590.826000,-116.987,8.095,-231.290,-159.467,-379.432,-269.955,-213.500,-50.240,-496.220
211,47590.847000,-114.050,9.107,-233.266,-158.479,-384.280,-267.998,-222.500,-71.240,-567.220
212,47590.865000,-113.071,8.095,-233.266,-152.520,-388.200,-271.052,-228.500,-88.240,-601.220
213,47590.886000,-116.008,10.119,-233.266,-145.706,-388.264,-269.204,-236.500,-98.240,-661.220
214,47590.902000,-118.945,13.154,-231.290,-141.783,-389.267,-269.272,-226.500,-40.240,-702.220
215,47590.950000,-115.029,13.154,-229.313,-133.945,-392.241,-268.423,-209.500,59.760,-720.220
216,47590.968000,-98.386,13.154,-227.336,-127.961,-397.128,-272.461,-211.500,68.760,-755.220
217,47590.975000,-99.365,12.142,-228.324,-127.077,-398.110,-266.568,-230.500,-47.240,-804.220
218,47590.997000,-110.134,12.142,-228.324,-117.162,-401.095,-272.647,-242.500,-78.240,-844.220
219,47591.20000,-110.134,12.142,-227.336,-110.373,-402.129,-268.828,-246.500,-13.240,-873.220
220,47591.37000,-103.281,13.154,-227.336,-102.492,-406.069,-269.947,-259.500,-0.240,-911.220
221,47591.50000,-97.407,15.178,-227.336,-89.711,-407.149,-273.126,-272.500,-27.240,-937.220
222,47591.68000,-101.323,16.190,-226.347,-82.886,-410.116,-270.290,-304.500,-94.240,-997.220
223,47591.96000,-101.323,15.178,-225.359,-79.959,-413.047,-268.369,-340.500,-88.240,-1064.220
224,47591.113000,-97.407,16.190,-226.347,-75.022,-415.993,-269.437,-376.500,-68.240,-1121.220
225,47591.133000,-96.428,16.190,-229.313,-55.443,-419.074,-268.796,-410.500,-63.240,-1176.220
226,47591.153000,-93.491,18.213,-232.278,-50.542,-418.150,-269.868,-429.500,-22.240,-1224.220
227,47591.176000,-89.576,19.225,-233.266,-38.774,-419.223,-271.059,-445.500,5.760,-1272.220
228,47591.193000,-87.618,23.273,-233.266,-22.131,-420.342,-271.353,-451.500,30.760,-1307.220
229,47591.216000,-81.744,21.249,-235.243,-23.083,-423.235,-271.332,-462.500,49.760,-1329.220
230,47591.248000,-71.954,22.261,-239.197,-11.324,-419.470,-274.498,-468.500,45.760,-1338.220
231,47591.261000,-70.975,22.261,-244.139,-0.552,-420.535,-274.687,-466.500,4.760,-1344.220
232,47591.278000,-73.912,24.285,-245.127,11.146,-417.740,-273.913,-448.500,-2.240,-1332.220
233,47591.301000,-64.122,26.308,-246.116,21.044,-422.663,-278.020,-432.500,11.760,-1307.220
234,47591.328000,-61.185,26.308,-249.081,33.791,-423.745,-279.229,-415.500,-17.240,-1277.220
235,47591.346000,-68.038,25.296,-254.023,48.398,-418.075,-278.510,-382.500,-16.240,-1247.220
236,47591.366000,-68.038,25.296,-252.046,50.380,-415.187,-281.502,-340.500,31.760,-1212.220
237,47591.372000,-61.185,25.296,-250.069,63.169,-415.299,-285.665,-300.500,44.760,-1181.220
238,47591.420000,-59.228,23.273,-251.058,76.868,-415.424,-285.908,-263.500,29.760,-1145.220
239,47591.433000,-64.122,19.225,-246.116,91.502,-412.656,-285.185,-251.500,-5.240,-1129.220
240,47591.461000,-61.185,20.237,-249.081,90.548,-409.742,-288.125,-247.500,-12.240,-1113.220
241,47591.465000,-58.249,23.273,-253.035,101.329,-407.903,-290.287,-248.500,-60.240,-1125.220
242,47591.492000,-69.017,15.178,-249.081,120.942,-407.111,-293.588,-238.500,-83.240,-1143.220
243,47591.511000,-70.975,13.154,-253.035,126.724,-397.490,-293.702,-237.500,-48.240,-1154.220
244,47591.532000,-54.333,16.190,-252.046,133.556,-399.489,-291.852,-234.500,-106.240,-1158.220
245,47591.550000,-54.333,15.178,-245.127,148.207,-398.656,-291.127,-235.500,-228.240,-1153.220
246,47591.568000,-69.017,11.130,-245.127,159.957,-395.859,-293.307,-229.500,-194.240,-1125.220
247,47591.593000,-68.038,15.178,-246.116,160.901,-393.934,-292.342,-212.500,-125.240,-1090.220
248,47591.611000,-60.207,14.166,-244.139,171.610,-386.291,-293.525,-203.500,-31.240,-1077.220
249,47591.631000,-54.333,14.166,-245.127,190.166,-384.526,-292.871,-206.500,-42.240,-1078.220
250,47591.653000,-55.312,14.166,-244.139,196.062,-379.739,-296.918,-209.500,-25.240,-1069.220
251,47591.676000,-67.059,8.095,-240.185,199.965,-371.064,-300.935,-166.500,95.760,-1018.220
252,47591.709000,-55.312,5.059,-233.266,217.595,-371.223,-302.232,-156.500,101.760,-980.220
253,47591.726000,-42.585,11.130,-235.243,221.560,-365.448,-308.215,-173.500,-50.240,-958.220
254,47591.735000,-64.122,6.071,-235.243,227.273,-359.703,-302.416,-162.500,-30.240,-930.220
255,47591.757000,-64.122,2.024,-233.266,240.001,-353.043,-306.587,-155.500,-14.240,-916.220
256,47591.775000,-48.459,0.000,-231.290,241.923,-351.127,-305.639,-167.500,-84.240,-917.220
257,47591.802000,-58.249,-1.012,-229.313,248.771,-345.382,-308.720,-214.500,-165.240,-917.220
258,47591.820000,-80.765,0.000,-232.278,258.518,-333.858,-312.844,-232.500,36.760,-906.220
259,47591.836000,-60.207,-1.012,-235.243,258.527,-334.826,-312.843,-230.500,161.760,-910.220
260,47591.857000,-30.837,-1.012,-235.243,264.387,-326.169,-316.895,-249.500,-14.240,-925.220
261,47591.880000,-45.522,-5.059,-240.185,269.200,-319.442,-316.003,-276.500,-111.240,-903.220
262,47591.911000,-29.859,-7.083,-247.104,279.952,-310.830,-320.141,-274.500,-20.240,-837.220
263,47591.925000,-14.195,-7.083,-251.058,281.961,-310.844,-323.130,-251.500,-46.240,-783.220
264,47591.945000,-18.111,-9.107,-251.058,284.835,-306.035,-322.202,-234.500,-148.240,-728.220
265,47591.967000,-19.090,-10.119,-256.000,294.575,-301.287,-322.380,-225.500,-151.240,-636.220
266,47591.991000,-11.258,-11.130,-256.000,290.669,-296.412,-325.270,-195.500,-71.240,-589.220
267,47592.11000,-13.216,-11.130,-256.000,295.483,-293.557,-322.405,-151.500,-19.240,-491.220
268,47592.26000,-17.132,-16.190,-259.954,300.453,-292.629,-327.417,-104.500,23.760,-392.220
269,47592.35000,-9.300,-16.190,-258.965,300.426,-287.791,-328.406,-55.500,108.760,-289.220
270,47592.62000,-5.384,-15.178,-253.035,296.493,-283.885,-329.326,-19.500,99.760,-198.220
271,47592.82000,-9.300,-20.237,-253.035,300.364,-282.955,-327.426,1.500,37.760,-120.220
272,47592.110000,-10.279,-20.237,-252.046,303.351,-282.979,-330.432,20.500,8.760,-56.220
273,47592.140000,-11.258,-19.225,-247.104,301.341,-279.092,-329.417,32.500,-7.240,12.780
274,47592.153000,-16.153,-22.261,-247.104,302.303,-281.038,-327.463,37.500,-8.240,47.780
275,47592.172000,-16.153,-22.261,-245.127,306.244,-285.911,-326.542,41.500,-0.240,111.780
276,47592.195000,-14.195,-20.237,-243.151,300.399,-286.824,-327.422,49.500,17.760,173.780
277,47592.213000,-12.237,-15.178,-245.127,299.456,-288.749,-328.388,48.500,18.760,230.780
278,47592.237000,-13.216,-20.237,-246.116,293.611,-289.662,-329.268,51.500,2.760,292.780
279,47592.268000,-18.111,-20.237,-248.093,294.565,-292.577,-326.328,59.500,12.760,356.780
280,47592.285000,-16.153,-15.178,-250.069,290.659,-293.508,-326.258,80.500,84.760,429.780
281,47592.300000,-7.342,-11.130,-251.058,286.781,-297.342,-326.185,102.500,111.760,499.780
282,47592.313000,-3.426,-9.107,-248.093,286.817,-303.148,-325.194,112.500,81.760,572.780
283,47592.331000,-4.405,-8.095,-248.093,282.956,-305.045,-327.092,115.500,77.760,616.780
284,47592.353000,-6.363,-5.059,-248.093,275.146,-308.844,-325.965,125.500,101.760,708.780
285,47592.367000,0.489,-1.012,-249.081,268.367,-314.586,-326.823,140.500,132.760,793.780
286,47592.405000,-7.342,-2.024,-250.069,267.363,-315.546,-324.835,145.500,118.760,882.780
287,47592.423000,-11.258,0.000,-249.081,262.611,-325.173,-327.693,161.500,200.760,967.780
288,47592.442000,4.405,2.024,-248.093,253.788,-327.029,-325.566,175.500,226.760,1057.780
289,47592.457000,1.468,5.059,-249.081,235.277,-335.567,-325.229,178.500,124.760,1128.780
290,47592.492000,-19.090,8.095,-253.035,227.477,-342.270,-323.114,185.500,111.760,1200.780
291,47592.496000,-21.048,8.095,-256.988,222.593,-343.192,-323.026,215.500,147.760,1273.780
292,47592.522000,-6.363,14.166,-256.000,208.983,-352.742,-322.774,225.500,83.760,1292.780
293,47592.537000,-32.795,14.166,-260.942,205.980,-358.527,-315.823,225.500,-100.240,1324.780
294,47592.560000,-49.438,20.237,-259.954,195.331,-367.133,-317.594,267.500,-64.240,1367.780
295,47592.583000,-48.459,23.273,-260.942,175.719,-371.797,-312.319,306.500,21.760,1410.780
296,47592.615000,-45.522,25.296,-257.977,165.979,-378.481,-311.154,330.500,-15.240,1419.780
297,47592.620000,-58.249,28.332,-256.988,159.097,-384.228,-306.104,336.500,-43.240,1426.780
298,47592.641000,-66.080,29.344,-256.000,146.447,-387.980,-307.844,365.500,48.760,1442.780
299,47592.667000,-60.207,29.344,-250.069,125.847,-389.732,-303.540,379.500,50.760,1440.780
300,47592.687000,-61.185,35.415,-247.104,127.893,-399.424,-303.565,369.500,36.760,1432.780
301,47592.706000,-78.807,32.379,-245.127,110.237,-400.234,-300.298,369.500,104.760,1435.780
302,47592.725000,-75.870,31.368,-238.208,99.534,-399.165,-304.048,377.500,321.760,1452.780
303,47592.750000,-59.228,25.296,-239.197,91.724,-401.028,-303.908,371.500,363.760,1458.780
304,47592.775000,-53.354,27.320,-235.243,67.235,-397.904,-303.478,361.500,200.760,1448.780
305,47592.793000,-65.101,29.344,-229.313,62.317,-400.764,-300.434,347.500,81.760,1455.780
306,47592.813000,-70.975,27.320,-222.394,48.697,-403.539,-303.143,330.500,72.760,1458.780
307,47592.828000,-66.080,29.344,-222.394,36.912,-406.339,-298.994,295.500,7.760,1416.780
308,47592.851000,-74.891,26.308,-226.347,20.286,-403.283,-300.672,262.500,23.760,1374.780
309,47592.873000,-85.660,26.308,-231.290,18.294,-403.267,-298.668,232.500,135.760,1334.780
310,47592.900000,-80.765,29.344,-234.255,-3.154,-404.035,-302.225,211.500,178.760,1309.780
311,47592.908000,-66.080,30.356,-234.255,-13.875,-402.967,-304.990,175.500,184.760,1257.780
312,47592.928000,-68.038,25.296,-239.197,-16.880,-399.073,-302.973,145.500,116.760,1208.780
313,47592.951000,-73.912,30.356,-243.151,-35.428,-399.869,-304.613,134.500,122.760,1170.780
314,47592.971000,-62.164,30.356,-243.151,-46.279,-395.904,-301.472,128.500,110.760,1151.780
315,47592.988000,-63.143,30.356,-243.151,-55.078,-392.920,-303.289,122.500,99.760,1139.780
316,47593.11000,-68.038,27.320,-249.081,-57.096,-390.002,-301.287,143.500,113.760,1140.780
317,47593.30000,-65.101,30.356,-250.069,-68.787,-387.957,-305.021,157.500,128.760,1147.780
318,47593.43000,-60.207,33.391,-249.081,-86.453,-381.992,-304.715,162.500,126.760,1137.780
319,47593.76000,-61.185,30.356,-249.081,-98.185,-386.724,-302.533,169.500,101.760,1134.780
320,47593.96000,-56.291,26.308,-247.104,-99.217,-378.975,-303.509,175.500,16.760,1117.780
321,47593.131000,-60.207,29.344,-247.104,-110.033,-376.944,-301.351,170.500,-24.240,1104.780
322,47593.135000,-64.122,29.344,-244.139,-121.776,-372.966,-303.116,170.500,65.760,1079.780
323,47593.162000,-48.459,23.273,-247.104,-123.742,-371.981,-303.083,169.500,96.760,1048.780
324,47593.178000,-44.543,20.237,-252.046,-134.506,-369.947,-303.879,151.500,-33.240,1005.780
325,47593.206000,-51.396,19.225,-261.931,-145.348,-365.014,-301.724,124.500,-210.240,985.780
326,47593.222000,-66.080,34.403,-259.954,-153.210,-366.881,-298.630,145.500,-225.240,942.780
327,47593.243000,-70.975,34.403,-256.988,-154.267,-363.973,-295.661,197.500,-76.240,934.780
328,47593.268000,-59.228,36.427,-261.931,-163.118,-360.991,-294.523,224.500,-21.240,940.780
329,47593.286000,-60.207,33.391,-251.058,-173.943,-354.122,-294.340,274.500,-60.240,972.780
330,47593.306000,-84.681,32.379,-239.197,-176.853,-355.061,-295.272,304.500,-199.240,1012.780
331,47593.328000,-105.239,30.356,-235.243,-178.879,-353.112,-292.285,347.500,-212.240,1037.780
332,47593.343000,-113.071,27.320,-229.313,-189.644,-349.142,-294.068,395.500,-113.240,1023.780
333,47593.372000,-107.197,23.273,-221.405,-197.526,-341.331,-294.922,405.500,-76.240,972.780
334,47593.390000,-120.902,16.190,-218.440,-200.425,-345.174,-294.866,369.500,-143.240,899.780
335,47593.412000,-139.503,8.095,-208.556,-202.514,-336.452,-291.886,329.500,-103.240,800.780
336,47593.435000,-135.587,5.059,-209.544,-205.476,-335.459,-290.850,253.500,-55.240,664.780
337,47593.443000,-133.629,4.047,-208.556,-213.235,-335.384,-294.651,224.500,-42.240,591.780
338,47593.466000,-138.524,1.012,-207.568,-214.265,-335.378,-291.679,148.500,-92.240,445.780
339,47593.493000,-133.629,2.024,-199.660,-213.261,-336.353,-292.681,77.500,-93.240,301.780
340,47593.521000,-145.377,1.012,-205.591,-217.262,-330.515,-290.648,-13.500,-129.240,172.780
341,47593.540000,-137.545,6.071,-212.510,-218.266,-333.412,-287.673,-49.500,-98.240,55.780
342,47593.562000,-126.776,8.095,-216.463,-213.356,-333.455,-288.744,-58.500,-94.240,-26.220
343,47593.576000,-122.860,10.119,-221.405,-214.334,-337.318,-286.754,-93.500,-138.240,-127.220
344,47593.593000,-122.860,12.142,-221.405,-219.269,-338.244,-283.712,-135.500,-171.240,-246.220
345,47593.613000,-126.776,11.130,-222.394,-212.367,-344.110,-283.827,-185.500,-174.240,-372.220
346,47593.631000,-121.881,12.142,-223.382,-211.458,-342.187,-280.892,-208.500,-150.240,-427.220
347,47593.653000,-122.860,14.166,-223.382,-208.530,-347.054,-277.985,-255.500,-151.240,-529.220
348,47593.672000,-126.776,16.190,-225.359,-208.484,-355.763,-276.007,-282.500,-171.240,-610.220
349,47593.698000,-121.881,20.237,-226.347,-204.631,-356.769,-272.136,-295.500,-195.240,-684.220
350,47593.712000,-122.860,24.285,-229.313,-195.745,-361.685,-274.256,-321.500,-230.240,-768.220
351,47593.735000,-124.818,21.249,-230.301,-193.891,-363.644,-267.396,-332.500,-247.240,-843.220
352,47593.757000,-133.629,24.285,-229.313,-191.898,-371.403,-265.453,-334.500,-191.240,-893.220
353,47593.782000,-132.650,24.285,-229.313,-175.306,-374.460,-261.805,-343.500,-113.240,-939.220
354,47593.797000,-120.902,26.308,-231.290,-170.369,-381.278,-260.900,-351.500,-119.240,-1010.220
355,47593.825000,-122.860,29.344,-229.313,-172.289,-387.065,-259.875,-363.500,-203.240,-1051.220
356,47593.843000,-126.776,35.415,-230.301,-163.482,-392.953,-257.070,-386.500,-238.240,-1132.220
357,47593.872000,-122.860,36.427,-234.255,-147.858,-400.840,-251.431,-406.500,-203.240,-1188.220
358,47593.882000,-119.924,37.439,-230.301,-142.912,-406.689,-251.511,-417.500,-182.240,-1253.220
359,47593.891000,-121.881,41.486,-229.313,-128.252,-406.823,-250.786,-429.500,-121.240,-1311.220
360,47593.921000,-118.945,43.510,-233.266,-120.380,-411.732,-250.920,-435.500,-36.240,-1357.220
361,47593.944000,-107.197,43.510,-233.266,-101.804,-419.645,-246.317,-433.500,-50.240,-1401.220
362,47593.962000,-106.218,43.510,-228.324,-102.704,-420.599,-250.238,-449.500,-88.240,-1440.220
363,47593.978000,-110.134,48.569,-233.266,-78.198,-425.659,-250.665,-461.500,-73.240,-1452.220
364,47594.1000,-102.302,44.522,-234.255,-74.309,-428.600,-247.777,-452.500,-11.240,-1476.220
365,47594.23000,-99.365,45.534,-224.371,-56.635,-429.724,-251.042,-427.500,30.760,-1488.220
366,47594.46000,-93.491,50.593,-229.313,-38.026,-431.828,-251.369,-460.500,68.760,-1496.220
367,47594.69000,-76.849,47.557,-237.220,-31.106,-435.758,-253.456,-483.500,-2.240,-1509.220
368,47594.89000,-83.702,44.522,-234.255,-17.433,-436.852,-251.727,-463.500,-77.240,-1525.220
369,47594.108000,-87.618,44.522,-223.382,-9.528,-435.951,-256.790,-464.500,-51.240,-1498.220
370,47594.126000,-79.786,48.569,-230.301,12.830,-433.260,-250.298,-485.500,-63.240,-1480.220
371,47594.148000,-66.080,45.534,-232.278,18.762,-436.214,-252.368,-476.500,-129.240,-1457.220
372,47594.166000,-68.038,41.486,-222.394,32.478,-436.337,-253.595,-482.500,-164.240,-1443.220
373,47594.183000,-78.807,40.474,-228.324,51.087,-438.441,-253.922,-498.500,-131.240,-1426.220
374,47594.211000,-74.891,42.498,-239.197,49.086,-433.586,-253.892,-511.500,-43.240,-1421.220
375,47594.231000,-79.786,41.486,-232.278,68.733,-432.792,-259.163,-496.500,62.760,-1412.220
376,47594.254000,-76.849,35.415,-232.278,78.560,-428.039,-264.265,-506.500,133.760,-1405.220
377,47594.291000,-59.228,39.462,-248.093,92.258,-424.292,-266.481,-520.500,88.760,-1406.220
378,47594.310000,-67.059,34.403,-250.069,95.237,-425.284,-268.501,-480.500,98.760,-1390.220
379,47594.323000,-70.975,32.379,-239.197,116.745,-417.738,-271.844,-456.500,165.760,-1347.220
380,47594.338000,-55.312,35.415,-248.093,128.641,-413.964,-282.888,-435.500,103.760,-1307.220
381,47594.353000,-46.501,35.415,-252.046,132.442,-409.167,-279.023,-427.500,41.760,-1285.220
382,47594.376000,-65.101,31.368,-249.081,156.972,-405.514,-285.368,-384.500,52.760,-1235.220
383,47594.395000,-69.017,27.320,-248.093,154.018,-401.616,-286.304,-344.500,163.760,-1179.220
384,47594.416000,-64.122,27.320,-248.093,171.656,-395.000,-291.547,-333.500,125.760,-1151.220
385,47594.437000,-67.059,22.261,-248.093,175.551,-391.165,-292.604,-303.500,174.760,-1125.220
386,47594.455000,-40.627,22.261,-255.012,180.493,-381.527,-300.579,-267.500,247.760,-1091.220
387,47594.482000,-51.396,23.273,-250.069,191.238,-377.755,-301.758,-272.500,116.760,-1087.220
388,47594.500000,-70.975,18.213,-240.185,199.107,-367.177,-309.785,-247.500,166.760,-1057.220
389,47594.515000,-42.585,12.142,-241.174,206.950,-359.504,-314.855,-204.500,282.760,-1004.220
390,47594.537000,-36.711,15.178,-239.197,217.678,-357.668,-314.062,-204.500,239.760,-1000.220
391,47594.562000,-67.059,11.130,-230.301,226.543,-349.033,-322.105,-227.500,145.760,-978.220
392,47594.600000,-33.774,4.047,-238.208,227.460,-344.206,-321.142,-209.500,322.760,-923.220
393,47594.608000,-5.384,11.130,-240.185,240.230,-334.640,-329.255,-229.500,235.760,-931.220
394,47594.636000,-37.690,7.083,-241.174,244.117,-331.774,-329.327,-281.500,-49.240,-931.220
395,47594.650000,-34.753,4.047,-243.151,249.977,-323.116,-333.379,-270.500,40.760,-882.220
396,47594.665000,-5.384,3.036,-250.069,251.836,-312.493,-333.424,-252.500,53.760,-834.220
397,47594.686000,-3.426,2.024,-251.058,253.906,-315.408,-338.380,-245.500,-137.240,-782.220
398,47594.700000,-19.090,1.012,-253.035,267.561,-310.695,-338.627,-232.500,-180.240,-690.220
399,47594.727000,-23.985,0.000,-259.954,262.616,-308.718,-336.573,-209.500,-113.240,-631.220
400,47594.750000,-13.216,0.000,-257.977,264.544,-298.090,-340.557,-152.500,51.760,-526.220
401,47594.767000,-6.363,-1.012,-254.023,269.454,-298.134,-341.628,-106.500,89.760,-437.220
402,47594.784000,-13.216,-2.024,-258.965,272.328,-293.325,-340.700,-86.500,80.760,-349.220
403,47594.805000,-10.279,-3.036,-256.988,279.133,-288.550,-340.826,-60.500,104.760,-275.220
404,47594.827000,-14.195,-4.047,-250.069,271.339,-288.477,-342.658,-39.500,104.760,-212.220
405,47594.845000,-12.237,-8.095,-250.069,275.305,-286.574,-346.668,-26.500,118.760,-147.220
406,47594.875000,-9.300,-6.071,-247.104,277.235,-283.689,-346.705,-21.500,155.760,-76.220
407,47594.900000,0.489,-8.095,-245.127,271.363,-281.700,-347.588,-18.500,157.760,-4.220
408,47594.908000,8.321,-4.047,-247.104,274.386,-283.658,-351.577,-18.500,115.760,25.780
409,47594.926000,8.321,-3.036,-255.012,274.334,-281.725,-349.610,-24.500,47.760,89.780
410,47594.953000,2.447,-3.036,-263.907,277.321,-281.749,-352.616,-19.500,122.760,178.780
411,47594.971000,15.174,-2.024,-264.896,267.519,-281.661,-351.458,42.500,295.760,294.780
412,47594.993000,33.774,-4.047,-258.965,274.464,-282.685,-356.502,91.500,237.760,403.780
413,47595.25000,29.859,-2.024,-258.965,269.520,-284.580,-352.474,102.500,47.760,505.780
414,47595.42000,20.069,1.012,-260.942,264.690,-291.307,-352.381,125.500,-3.240,625.780
415,47595.61000,14.195,0.000,-265.884,257.832,-294.149,-350.288,161.500,10.760,726.780
416,47595.77000,11.258,1.012,-265.884,251.045,-300.858,-350.160,178.500,21.760,810.780
417,47595.98000,3.426,7.083,-260.942,250.067,-302.785,-349.156,204.500,83.760,852.780
418,47595.116000,3.426,9.107,-258.965,242.214,-305.619,-346.060,237.500,182.760,948.780
419,47595.138000,12.237,14.166,-256.000,233.522,-314.244,-347.865,248.500,148.760,1035.780
420,47595.161000,-1.468,13.154,-262.919,235.506,-319.100,-346.910,257.500,64.760,1105.780
421,47595.181000,-18.111,11.130,-255.012,224.779,-324.807,-345.729,294.500,147.760,1181.780
422,47595.202000,-23.006,12.142,-249.081,214.959,-324.720,-343.586,310.500,266.760,1242.780
423,47595.215000,-8.321,17.202,-251.058,210.217,-335.314,-346.444,312.500,215.760,1276.780
424,47595.238000,-6.363,20.237,-250.069,198.379,-334.245,-341.313,292.500,55.760,1294.780
425,47595.255000,-22.027,19.225,-247.104,185.687,-342.839,-338.125,286.500,16.760,1307.780
426,47595.276000,-28.880,24.285,-248.093,171.028,-346.576,-336.877,285.500,30.760,1336.780
427,47595.295000,-27.901,25.296,-243.151,168.172,-353.320,-337.803,288.500,57.760,1356.780
428,47595.351000,-32.795,26.308,-239.197,155.419,-359.014,-332.648,276.500,83.760,1378.780
429,47595.351000,-27.901,28.332,-237.220,149.662,-367.665,-334.505,266.500,93.760,1406.780
430,47595.364000,-29.859,23.273,-234.255,132.949,-364.614,-331.260,255.500,67.760,1436.780
431,47595.387000,-27.901,30.356,-231.290,128.172,-375.210,-332.147,231.500,24.760,1460.780
432,47595.408000,-26.922,32.379,-232.278,110.507,-375.053,-328.882,210.500,-90.240,1465.780
433,47595.431000,-32.795,27.320,-241.174,96.793,-380.737,-324.695,189.500,-184.240,1436.780
434,47595.453000,-53.354,33.391,-243.151,81.181,-385.432,-324.413,192.500,-147.240,1440.780
435,47595.471000,-62.164,36.427,-241.174,67.475,-388.211,-322.198,212.500,57.760,1449.780
436,47595.488000,-47.480,36.427,-241.174,56.711,-386.178,-322.995,211.500,119.760,1449.780
437,47595.511000,-42.585,33.391,-242.162,41.965,-391.855,-315.836,199.500,-11.240,1445.780
438,47595.535000,-59.228,36.427,-241.174,36.121,-392.768,-316.716,196.500,-45.240,1457.780
439,47595.551000,-69.996,42.498,-243.151,21.452,-393.602,-316.455,200.500,49.760,1457.780
440,47595.573000,-63.143,38.451,-242.162,9.710,-393.496,-316.248,194.500,70.760,1427.780
441,47595.591000,-63.143,36.427,-244.139,-4.023,-395.309,-313.049,193.500,55.760,1392.780
442,47595.613000,-66.080,39.462,-244.139,-16.735,-394.225,-313.810,196.500,68.760,1385.780
443,47595.636000,-67.059,38.451,-240.185,-26.582,-387.364,-313.644,195.500,68.760,1374.780
444,47595.651000,-60.207,40.474,-240.185,-36.323,-388.240,-315.439,177.500,-6.240,1338.780
445,47595.662000,-71.954,35.415,-244.139,-52.992,-388.091,-313.176,178.500,-21.240,1303.780
446,47595.680000,-78.807,37.439,-239.197,-63.825,-386.061,-310.033,190.500,91.760,1280.780
447,47595.712000,-62.164,35.415,-238.208,-69.706,-381.169,-311.904,180.500,112.760,1260.780
448,47595.735000,-70.975,34.403,-237.220,-83.406,-379.109,-312.648,166.500,-3.240,1219.780
449,47595.752000,-82.723,38.451,-237.220,-93.199,-379.988,-311.489,185.500,21.760,1213.780
450,47595.783000,-70.975,37.439,-237.220,-99.106,-374.129,-312.376,242.500,180.760,1246.780
451,47595.797000,-55.312,35.415,-240.185,-107.861,-370.175,-317.148,281.500,164.760,1251.780
452,47595.820000,-53.354,33.391,-237.220,-122.644,-366.176,-312.954,297.500,69.760,1260.780
453,47595.837000,-63.143,34.403,-236.232,-128.471,-367.088,-314.818,309.500,-133.240,1264.780
454,47595.858000,-67.059,30.356,-242.162,-135.461,-359.290,-310.766,298.500,-203.240,1259.780
455,47595.883000,-59.228,31.368,-246.116,-147.193,-362.086,-309.571,276.500,-212.240,1210.780
456,47595.900000,-65.101,26.308,-245.127,-157.118,-358.134,-303.493,266.500,-231.240,1132.780
457,47595.921000,-67.059,21.249,-246.116,-160.971,-357.127,-307.364,244.500,-192.240,1074.780
458,47595.946000,-56.291,25.296,-243.151,-167.044,-348.374,-300.375,213.500,-177.240,1022.780
459,47595.968000,-61.185,23.273,-241.174,-174.801,-352.170,-302.203,185.500,-263.240,976.780
460,47595.977000,-75.870,23.273,-242.162,-184.725,-352.089,-294.152,194.500,-293.240,946.780
461,47595.994000,-83.702,24.285,-240.185,-184.682,-349.183,-298.093,207.500,-268.240,940.780
462,47596.11000,-90.554,26.308,-236.232,-191.636,-347.191,-293.051,242.500,-190.240,948.780
463,47596.41000,-103.281,27.320,-230.301,-198.514,-336.483,-296.879,298.500,-111.240,964.780
464,47596.57000,-109.155,24.285,-233.266,-210.230,-337.343,-297.655,338.500,-58.240,971.780
465,47596.87000,-112.092,20.237,-231.290,-215.202,-330.527,-296.591,384.500,-68.240,963.780
466,47596.106000,-119.924,12.142,-232.278,-218.120,-330.500,-297.524,388.500,-121.240,922.780
467,47596.138000,-119.924,13.154,-234.255,-225.040,-324.634,-296.424,352.500,-162.240,817.780
468,47596.157000,-126.776,7.083,-233.266,-225.004,-328.504,-296.420,298.500,-207.240,669.780
469,47596.171000,-134.608,1.012,-232.278,-225.066,-323.668,-295.440,264.500,-195.240,483.780
470,47596.194000,-126.776,-1.012,-231.290,-225.041,-320.762,-298.397,183.500,-142.240,392.780
471,47596.216000,-122.860,-5.059,-232.278,-228.980,-323.632,-295.371,86.500,-126.240,220.780
472,47596.233000,-124.818,-1.012,-229.313,-230.963,-322.648,-294.352,7.500,-146.240,60.780
473,47596.253000,-121.881,1.012,-222.394,-229.067,-321.701,-291.434,-46.500,-127.240,-83.220
474,47596.272000,-117.966,4.047,-222.394,-229.049,-323.636,-291.432,-93.500,-93.240,-193.220
475,47596.291000,-114.050,7.083,-224.371,-229.983,-330.400,-290.423,-129.500,-104.240,-280.220
476,47596.308000,-114.050,9.107,-220.417,-228.077,-332.356,-286.516,-160.500,-142.240,-347.220
477,47596.335000,-117.966,11.130,-219.429,-228.095,-330.421,-286.518,-180.500,-125.240,-409.220
478,47596.348000,-116.987,11.130,-219.429,-222.188,-336.280,-285.632,-190.500,-103.240,-440.220
479,47596.367000,-111.113,11.130,-222.394,-220.169,-341.134,-286.646,-219.500,-111.240,-510.220
480,47596.395000,-119.924,13.154,-223.382,-213.380,-344.103,-281.840,-263.500,-147.240,-597.220
481,47596.412000,-123.839,16.190,-226.347,-207.516,-348.997,-278.985,-288.500,-101.240,-671.220
482,47596.440000,-121.881,16.190,-228.324,-210.424,-355.744,-276.957,-294.500,-66.240,-741.220
483,47596.459000,-120.902,20.237,-227.336,-206.458,-357.712,-278.994,-307.500,-108.240,-806.220
484,47596.477000,-124.818,22.261,-229.313,-192.774,-363.645,-275.291,-324.500,-147.240,-859.220
485,47596.496000,-130.692,25.296,-235.243,-191.812,-369.462,-271.363,-327.500,-138.240,-937.220
486,47596.519000,-126.776,27.320,-235.243,-188.893,-371.426,-269.444,-327.500,-124.240,-1014.220
487,47596.536000,-122.860,29.344,-237.220,-174.144,-381.234,-268.709,-329.500,-116.240,-1052.220
488,47596.558000,-126.776,31.368,-233.266,-162.410,-384.245,-266.944,-336.500,-102.240,-1133.220
489,47596.578000,-127.755,32.379,-232.278,-163.371,-386.171,-266.925,-348.500,-40.240,-1210.220
490,47596.596000,-116.987,35.415,-233.266,-149.583,-395.970,-267.157,-367.500,-35.240,-1280.220
491,47596.617000,-108.176,37.439,-234.255,-137.832,-398.980,-266.377,-382.500,-113.240,-1346.220
492,47596.638000,-113.071,39.462,-228.324,-123.171,-402.986,-263.678,-410.500,-130.240,-1410.220
493,47596.652000,-114.050,40.474,-226.347,-116.241,-411.755,-263.791,-438.500,-57.240,-1470.220
494,47596.678000,-107.197,41.486,-227.336,-109.365,-412.783,-264.896,-442.500,-31.240,-1525.220
495,47596.699000,-101.323,43.510,-225.359,-89.759,-420.702,-263.264,-450.500,-22.240,-1557.220
496,47596.724000,-99.365,44.522,-224.371,-81.906,-417.868,-266.360,-472.500,12.760,-1576.220
497,47596.745000,-96.428,44.522,-227.336,-65.322,-421.894,-261.726,-512.500,28.760,-1628.220
498,47596.765000,-89.576,44.522,-229.313,-49.544,-427.837,-265.936,-527.500,3.760,-1673.220
499,47596.782000,-84.681,46.545,-228.324,-29.074,-425.125,-263.348,-543.500,-54.240,-1703.220
500,47596.805000,-91.533,47.557,-226.347,-27.991,-428.999,-267.301,-590.500,-35.240,-1738.220
501,47596.827000,-88.597,52.617,-228.324,-10.395,-429.160,-266.628,-612.500,11.760,-1764.220
502,47596.851000,-77.828,52.617,-232.278,17.011,-428.441,-268.098,-604.500,-50.240,-1772.220
503,47596.860000,-74.891,51.605,-231.290,25.852,-428.519,-270.223,-623.500,-87.240,-1772.220
504,47596.899000,-81.744,55.652,-234.255,41.455,-426.729,-268.532,-626.500,-67.240,-1762.220
505,47596.920000,-85.660,57.676,-233.266,47.430,-426.776,-274.545,-587.500,43.760,-1745.220
506,47596.931000,-68.038,52.617,-231.290,65.041,-421.129,-277.816,-585.500,45.760,-1725.220
507,47596.951000,-64.122,58.688,-238.208,76.827,-424.137,-279.006,-592.500,23.760,-1717.220
508,47596.967000,-69.017,56.664,-237.220,92.412,-414.604,-280.277,-561.500,91.760,-1674.220
509,47596.989000,-64.122,51.605,-233.266,104.274,-412.769,-288.365,-562.500,140.760,-1666.220
510,47597.1000,-54.333,51.605,-246.116,121.859,-404.219,-291.639,-538.500,215.760,-1630.220
511,47597.26000,-44.543,52.617,-246.116,139.557,-398.567,-299.835,-506.500,311.760,-1582.220
512,47597.63000,-32.795,48.569,-249.081,138.568,-391.783,-302.778,-480.500,315.760,-1532.220
513,47597.66000,-34.753,42.498,-246.116,155.303,-380.314,-314.901,-458.500,300.760,-1501.220
514,47597.92000,-15.174,39.462,-248.093,167.970,-372.690,-316.119,-401.500,318.760,-1409.220
515,47597.115000,1.468,36.427,-251.058,182.654,-367.983,-319.337,-363.500,183.760,-1333.220
516,47597.139000,-23.006,31.368,-249.081,180.662,-364.096,-319.307,-343.500,-101.240,-1261.220
517,47597.159000,-46.501,26.308,-248.093,189.536,-360.300,-325.375,-314.500,-91.240,-1163.220
518,47597.177000,-21.048,28.332,-250.069,212.949,-350.839,-326.785,-270.500,117.760,-1081.220
519,47597.197000,-8.321,23.273,-244.139,211.026,-348.883,-329.706,-238.500,44.760,-1027.220
520,47597.215000,-33.774,20.237,-247.104,216.860,-341.195,-331.787,-252.500,-108.240,-988.220
521,47597.237000,-49.438,21.249,-244.139,223.621,-335.455,-329.945,-250.500,75.760,-926.220
522,47597.267000,-25.943,12.142,-243.151,227.655,-329.677,-339.868,-230.500,207.760,-885.220
523,47597.286000,-7.342,12.142,-239.197,228.536,-320.980,-338.909,-200.500,196.760,-863.220
524,47597.314000,-23.985,11.130,-238.208,235.420,-321.040,-340.999,-230.500,-26.240,-837.220
525,47597.322000,-34.753,6.071,-236.232,241.306,-311.414,-347.022,-260.500,13.760,-772.220
526,47597.336000,-13.216,9.107,-238.208,248.128,-306.638,-348.132,-269.500,128.760,-732.220
527,47597.363000,-4.405,4.047,-244.139,248.118,-299.863,-351.093,-296.500,35.760,-721.220
528,47597.381000,-9.300,2.024,-248.093,252.049,-299.898,-352.147,-321.500,-23.240,-683.220
529,47597.403000,-2.447,5.059,-258.965,256.966,-295.102,-356.178,-311.500,12.760,-596.220
530,47597.421000,8.321,5.059,-264.896,253.026,-294.099,-355.125,-260.500,-45.240,-499.220
531,47597.438000,3.426,3.036,-264.896,251.978,-290.223,-353.142,-229.500,-91.240,-445.220
532,47597.466000,-7.342,2.024,-266.873,256.921,-288.329,-357.169,-168.500,-88.240,-313.220
533,47597.481000,-7.342,3.036,-267.861,258.895,-286.410,-359.176,-108.500,18.760,-185.220
534,47597.501000,-3.426,3.036,-265.884,256.869,-284.460,-356.189,-47.500,58.760,-101.220
535,47597.523000,-8.321,1.012,-263.907,255.016,-286.372,-361.076,-16.500,27.760,-41.220
536,47597.546000,-9.300,0.000,-261.931,254.955,-285.408,-358.123,2.500,37.760,31.780
537,47597.568000,-10.279,-1.012,-256.988,257.951,-284.463,-362.114,19.500,29.760,94.780
538,47597.588000,-16.153,0.000,-256.000,253.959,-283.464,-358.107,33.500,-14.240,144.780
539,47597.611000,-26.922,0.000,-255.012,256.012,-288.316,-361.091,57.500,49.760,199.780
540,47597.627000,-23.985,0.000,-256.000,257.926,-289.304,-358.171,68.500,88.760,226.780
541,47597.653000,-7.342,2.024,-256.000,257.892,-289.306,-356.201,80.500,58.760,260.780
542,47597.677000,-15.174,3.036,-255.012,247.137,-290.175,-356.010,75.500,-59.240,296.780
543,47597.693000,-24.964,3.036,-259.954,252.057,-295.058,-355.107,85.500,-35.240,356.780
544,47597.711000,-14.195,8.095,-259.954,248.134,-295.991,-354.052,115.500,54.760,420.780
545,47597.737000,-0.489,12.142,-258.965,244.255,-297.889,-354.965,141.500,38.760,480.780
546,47597.770000,0.489,12.142,-257.977,245.269,-301.768,-354.979,159.500,-11.240,559.780
547,47597.788000,-8.321,10.119,-261.931,234.508,-307.477,-351.828,193.500,49.760,652.780
548,47597.797000,5.384,16.190,-259.954,231.712,-313.250,-356.694,238.500,77.760,748.780
549,47597.811000,16.153,22.261,-258.965,229.643,-314.206,-349.765,252.500,34.760,794.780
550,47597.841000,2.447,18.213,-260.942,218.924,-318.945,-349.570,272.500,-17.240,890.780
551,47597.860000,-12.237,19.225,-260.942,222.821,-322.854,-346.681,316.500,100.760,997.780
552,47597.882000,3.426,26.308,-256.000,214.017,-330.517,-342.579,360.500,129.760,1089.780
553,47597.905000,10.279,30.356,-246.116,204.259,-335.266,-341.416,356.500,-14.240,1157.780
554,47597.920000,-17.132,28.332,-248.093,192.484,-339.032,-337.265,356.500,-10.240,1233.780
555,47597.942000,-32.795,27.320,-249.081,194.433,-341.954,-335.328,386.500,150.760,1308.780
556,47597.965000,-12.237,32.379,-243.151,182.815,-353.455,-336.093,390.500,101.760,1348.780
557,47597.995000,-12.237,37.439,-239.197,164.181,-356.193,-331.822,363.500,15.760,1379.780
558,47598.0,-36.711,32.379,-240.185,160.303,-361.962,-330.762,358.500,-26.240,1402.780
559,47598.22000,-47.480,35.415,-238.208,149.611,-367.668,-331.551,366.500,101.760,1443.780
560,47598.45000,-34.753,39.462,-233.266,139.774,-369.518,-327.437,354.500,148.760,1471.780
561,47598.62000,-40.627,34.403,-240.185,125.107,-374.223,-325.203,329.500,101.760,1483.780
562,47598.105000,-46.501,37.439,-241.174,122.215,-377.098,-326.133,312.500,96.760,1478.780
563,47598.124000,-52.375,39.462,-239.197,105.616,-380.816,-325.835,303.500,164.760,1482.780
564,47598.137000,-45.522,42.498,-240.185,98.707,-381.725,-321.774,292.500,120.760,1475.780
565,47598.141000,-36.711,40.474,-243.151,83.113,-386.419,-322.477,278.500,-29.240,1470.780
566,47598.169000,-52.375,40.474,-241.174,59.586,-387.176,-319.106,279.500,-37.240,1495.780
567,47598.191000,-62.164,42.498,-240.185,53.776,-390.022,-320.969,286.500,50.760,1507.780
568,47598.206000,-47.480,43.510,-240.185,38.077,-388.915,-318.724,292.500,27.760,1499.780
569,47598.229000,-43.564,43.510,-240.185,35.187,-397.597,-316.694,275.500,-158.240,1473.780
570,47598.251000,-73.912,40.474,-242.162,17.479,-398.410,-310.473,274.500,-65.240,1483.780
571,47598.272000,-75.870,43.510,-242.162,0.861,-394.386,-313.137,299.500,84.760,1483.780
572,47598.286000,-59.228,40.474,-238.208,-10.924,-393.314,-310.961,288.500,-82.240,1449.780
573,47598.326000,-90.554,43.510,-240.185,-22.700,-397.080,-306.810,275.500,-175.240,1423.780
574,47598.341000,-91.533,42.498,-235.243,-25.680,-392.217,-306.763,300.500,75.760,1424.780
575,47598.350000,-65.101,40.474,-233.266,-44.246,-391.078,-308.405,309.500,187.760,1415.780
576,47598.371000,-55.312,38.451,-236.232,-52.091,-389.072,-308.268,284.500,159.760,1341.780
577,47598.392000,-69.996,33.391,-239.197,-62.846,-389.942,-308.077,235.500,-44.240,1286.780
578,47598.425000,-71.954,39.462,-232.278,-69.757,-386.979,-305.989,231.500,-95.240,1283.780
579,47598.435000,-61.185,39.462,-235.243,-87.474,-382.953,-301.743,228.500,-119.240,1276.780
580,47598.455000,-53.354,38.451,-236.232,-104.117,-383.771,-300.463,211.500,-235.240,1223.780
581,47598.472000,-69.996,33.391,-241.174,-103.163,-388.620,-296.536,193.500,-394.240,1178.780
582,47598.495000,-80.765,41.486,-233.266,-112.066,-385.642,-292.444,210.500,-297.240,1174.780
583,47598.522000,-67.059,39.462,-229.313,-116.015,-383.673,-291.392,225.500,-149.240,1189.780
584,47598.542000,-65.101,40.474,-228.324,-134.685,-378.668,-289.099,223.500,-138.240,1185.780
585,47598.560000,-74.891,39.462,-219.429,-140.600,-377.650,-287.027,237.500,-93.240,1185.780
586,47598.580000,-75.870,36.427,-214.486,-156.265,-372.668,-288.724,239.500,101.760,1218.780
587,47598.600000,-54.333,33.391,-216.463,-162.163,-367.777,-289.610,224.500,223.760,1250.780
588,47598.617000,-61.185,37.439,-208.556,-167.048,-364.828,-291.496,208.500,129.760,1221.780
589,47598.637000,-74.891,23.273,-219.429,-179.823,-355.037,-293.250,169.500,97.760,1230.780
590,47598.654000,-74.891,24.285,-225.359,-181.833,-351.150,-292.235,150.500,59.760,1233.780
591,47598.675000,-85.660,29.344,-231.290,-202.409,-344.190,-293.848,139.500,-84.240,1227.780
592,47598.698000,-107.197,34.403,-237.220,-205.459,-335.458,-291.835,149.500,-225.240,1193.780
593,47598.720000,-121.881,34.403,-245.127,-213.312,-336.356,-289.726,162.500,-269.240,1169.780
594,47598.737000,-123.839,37.439,-250.069,-224.224,-331.427,-283.632,194.500,-315.240,1091.780
595,47598.760000,-134.608,36.427,-251.058,-235.923,-332.286,-285.393,208.500,-371.240,988.780
596,47598.782000,-150.272,33.391,-250.069,-237.014,-329.380,-280.455,211.500,-344.240,863.780
597,47598.800000,-146.356,31.368,-244.139,-242.894,-328.359,-280.352,204.500,-248.240,722.780
598,47598.814000,-137.545,25.296,-237.220,-242.999,-324.493,-276.417,162.500,-252.240,575.780
599,47598.846000,-142.440,20.237,-238.208,-243.934,-325.450,-278.368,103.500,-323.240,415.780
600,47598.868000,-147.335,20.237,-237.220,-247.882,-327.352,-275.343,46.500,-326.240,240.780
601,47598.897000,-151.250,19.225,-232.278,-254.766,-327.292,-273.252,22.500,-283.240,67.780
602,47598.922000,-147.335,19.225,-231.290,-250.903,-329.266,-269.380,-17.500,-147.240,-14.220
603,47598.931000,-138.524,21.249,-229.313,-247.942,-330.259,-270.416,-58.500,-71.240,-161.220
604,47598.946000,-127.755,22.261,-229.313,-242.044,-333.215,-270.517,-115.500,-90.240,-288.220
605,47598.968000,-128.734,25.296,-228.324,-244.078,-336.105,-264.571,-160.500,-126.240,-404.220
606,47598.990000,-131.671,28.332,-226.347,-245.021,-341.901,-263.563,-191.500,-114.240,-515.220
607,47599.16000,-126.776,29.344,-225.359,-239.210,-342.926,-259.727,-221.500,-82.240,-613.220
608,47599.33000,-123.839,29.344,-225.359,-235.243,-346.830,-260.777,-247.500,-65.240,-697.220
609,47599.50000,-120.902,33.391,-225.359,-228.402,-349.797,-258.926,-272.500,-65.240,-773.220
610,47599.70000,-121.881,37.439,-225.359,-226.373,-359.490,-257.966,-276.500,-58.240,-805.220
611,47599.91000,-123.839,37.439,-225.359,-211.704,-358.656,-258.226,-275.500,-23.240,-856.220
612,47599.113000,-118.945,36.427,-227.336,-208.689,-367.389,-258.269,-279.500,24.760,-913.220
613,47599.136000,-114.050,39.462,-226.347,-197.977,-367.490,-255.505,-298.500,54.760,-990.220
614,47599.156000,-111.113,42.498,-230.301,-199.794,-375.207,-259.402,-304.500,124.760,-1055.220
615,47599.194000,-107.197,38.451,-230.301,-187.091,-375.324,-258.642,-286.500,219.760,-1088.220
616,47599.212000,-109.155,37.439,-228.324,-176.223,-379.288,-262.768,-259.500,334.760,-1073.220
617,47599.221000,-101.323,37.439,-229.313,-166.290,-382.272,-269.831,-239.500,339.760,-1052.220
618,47599.238000,-89.576,36.427,-232.278,-163.362,-385.203,-267.910,-229.500,176.760,-1074.220
619,47599.268000,-95.449,38.451,-237.220,-150.581,-388.219,-270.102,-225.500,89.760,-1101.220
620,47599.283000,-107.197,40.474,-239.197,-150.572,-389.186,-270.101,-220.500,11.760,-1167.220
621,47599.309000,-115.029,40.474,-236.232,-133.867,-393.205,-272.361,-206.500,98.760,-1224.220
622,47599.330000,-106.218,40.474,-231.290,-125.104,-392.320,-270.548,-209.500,180.760,-1275.220
623,47599.350000,-93.491,39.462,-231.290,-112.209,-398.233,-277.660,-242.500,126.760,-1328.220
624,47599.367000,-91.533,41.486,-230.301,-100.439,-407.049,-274.905,-278.500,42.760,-1390.220
625,47599.388000,-98.386,44.522,-226.347,-89.598,-408.111,-279.033,-304.500,82.760,-1443.220
626,47599.405000,-98.386,45.534,-227.336,-72.903,-409.226,-282.281,-333.500,177.760,-1501.220
627,47599.421000,-89.576,43.510,-226.347,-68.867,-411.191,-288.257,-366.500,200.760,-1566.220
628,47599.448000,-75.870,42.498,-226.347,-47.445,-409.457,-283.715,-385.500,174.760,-1590.220
629,47599.461000,-70.975,46.545,-228.324,-36.621,-408.583,-287.846,-432.500,88.760,-1636.220
630,47599.487000,-67.059,45.534,-232.278,-19.925,-413.571,-289.120,-474.500,-9.240,-1673.220
631,47599.507000,-69.017,45.534,-231.290,-11.101,-413.650,-290.260,-482.500,-40.240,-1695.220
632,47599.525000,-69.017,47.557,-227.336,7.508,-415.753,-290.587,-466.500,9.760,-1676.220
633,47599.546000,-55.312,49.581,-227.336,21.215,-414.910,-291.815,-475.500,-36.240,-1641.220
634,47599.571000,-42.585,47.557,-237.220,34.914,-415.034,-292.057,-471.500,-252.240,-1606.220
635,47599.586000,-62.164,44.522,-228.324,42.638,-413.175,-287.274,-453.500,-391.240,-1547.220
636,47599.620000,-62.164,45.534,-230.301,56.372,-417.170,-287.512,-450.500,-359.240,-1489.220
637,47599.629000,-54.333,39.462,-237.220,71.016,-419.241,-284.815,-442.500,-249.240,-1462.220
638,47599.666000,-64.122,36.427,-236.232,74.955,-418.307,-286.855,-434.500,-260.240,-1423.220
639,47599.680000,-64.122,38.451,-237.220,86.601,-413.580,-284.113,-426.500,-184.240,-1372.220
640,47599.689000,-59.228,42.498,-243.151,102.317,-412.751,-288.330,-432.500,-98.240,-1312.220
641,47599.711000,-58.249,44.522,-244.139,114.976,-408.030,-287.575,-431.500,-66.240,-1308.220
642,47599.733000,-64.122,42.498,-245.127,127.687,-405.243,-288.788,-421.500,-27.240,-1296.220
643,47599.750000,-51.396,37.439,-243.151,135.531,-403.377,-290.898,-402.500,76.760,-1263.220
644,47599.770000,-38.669,37.439,-247.104,141.436,-397.621,-295.931,-407.500,15.760,-1229.220
645,47599.791000,-50.417,33.391,-242.162,151.228,-392.870,-299.063,-405.500,-48.240,-1191.220
646,47599.813000,-61.185,29.344,-242.162,158.068,-390.030,-300.172,-372.500,-51.240,-1160.220
647,47599.837000,-44.543,31.368,-247.104,167.765,-384.316,-298.381,-347.500,102.760,-1088.220
648,47599.854000,-32.795,32.379,-248.093,180.596,-379.586,-307.474,-341.500,105.760,-1043.220
649,47599.874000,-47.480,27.320,-242.162,189.419,-373.858,-311.575,-334.500,14.760,-1021.220
650,47599.898000,-56.291,21.249,-237.220,188.387,-368.044,-311.563,-303.500,144.760,-954.220
651,47599.921000,-21.048,24.285,-243.151,193.347,-362.277,-318.549,-281.500,258.760,-880.220
652,47599.934000,-9.300,24.285,-243.151,203.105,-357.529,-319.711,-273.500,31.760,-841.220
653,47599.950000,-37.690,23.273,-241.174,208.014,-355.636,-321.769,-277.500,-66.240,-794.220
654,47599.967000,-50.417,17.202,-245.127,208.013,-349.829,-324.730,-270.500,60.760,-742.220
655,47599.995000,-9.300,10.119,-242.162,213.908,-343.106,-329.764,-224.500,335.760,-650.220
656,47600.16000,5.384,11.130,-239.197,221.735,-339.305,-331.876,-217.500,219.760,-609.220
657,47600.35000,-23.006,3.036,-245.127,218.875,-332.499,-339.709,-223.500,44.760,-537.220
658,47600.62000,-27.901,0.000,-246.116,219.844,-329.605,-340.714,-216.500,127.760,-436.220
659,47600.82000,-8.321,5.059,-248.093,228.607,-326.783,-339.888,-203.500,111.760,-370.220
660,47600.115000,-23.985,4.047,-254.023,227.645,-322.902,-342.829,-202.500,-26.240,-335.220
661,47600.142000,-39.648,3.036,-258.965,221.774,-324.784,-341.738,-175.500,70.760,-280.220
662,47600.156000,-26.922,5.059,-255.012,225.740,-322.881,-345.748,-141.500,161.760,-208.220
663,47600.156000,-16.153,5.059,-253.035,223.773,-318.024,-347.688,-128.500,131.760,-183.220
664,47600.183000,-22.027,4.047,-257.977,225.668,-315.142,-345.756,-117.500,-11.240,-133.220
665,47600.206000,-31.816,6.071,-259.954,227.678,-317.093,-347.758,-101.500,-46.240,-73.220
666,47600.226000,-38.669,7.083,-257.977,228.682,-316.132,-349.746,-69.500,48.760,-9.220
667,47600.246000,-31.816,7.083,-257.977,228.656,-317.102,-347.776,-34.500,101.760,28.780
668,47600.274000,-16.153,6.071,-260.942,221.841,-315.102,-350.611,-20.500,15.760,61.780
669,47600.287000,-23.006,10.119,-264.896,222.856,-322.852,-348.651,-20.500,-65.240,102.780
670,47600.296000,-27.901,10.119,-265.884,223.756,-319.961,-345.717,15.500,-22.240,156.780
671,47600.324000,-23.006,8.095,-269.838,226.708,-318.051,-347.740,59.500,0.760,205.780
672,47600.354000,-16.153,10.119,-269.838,221.868,-319.940,-349.621,82.500,-10.240,235.780
673,47600.367000,-14.195,14.166,-267.861,216.968,-324.735,-346.575,123.500,-40.240,310.780
674,47600.400000,-11.258,17.202,-268.849,216.017,-329.564,-345.568,169.500,-49.240,397.780
675,47600.429000,-4.405,15.178,-263.907,214.986,-327.622,-343.584,208.500,-102.240,473.780
676,47600.437000,-9.300,17.202,-261.931,214.010,-335.357,-339.619,236.500,-108.240,553.780
677,47600.461000,-21.048,17.202,-258.965,212.027,-336.308,-337.614,276.500,45.760,655.780
678,47600.476000,-2.447,16.190,-255.012,209.101,-339.185,-336.575,320.500,91.760,754.780
679,47600.504000,16.153,19.225,-255.012,202.306,-348.798,-334.474,321.500,-146.240,842.780
680,47600.525000,3.426,24.285,-248.093,194.418,-351.634,-329.409,321.500,-265.240,938.780
681,47600.540000,-20.069,27.320,-243.151,182.687,-360.238,-325.254,329.500,-238.240,975.780
682,47600.557000,-31.816,24.285,-247.104,181.675,-364.103,-321.294,371.500,-113.240,1038.780
683,47600.580000,-27.901,24.285,-249.081,172.914,-374.667,-318.173,411.500,-36.240,1091.780
684,47600.607000,-32.795,27.320,-249.081,169.970,-371.737,-319.109,424.500,5.760,1164.780
685,47600.629000,-38.669,28.332,-248.093,159.191,-379.383,-313.987,445.500,83.760,1226.780
686,47600.632000,-30.837,32.379,-243.151,146.498,-384.106,-312.772,453.500,82.760,1273.780
687,47600.660000,-35.732,31.368,-246.116,137.683,-384.994,-311.631,463.500,49.760,1318.780
688,47600.677000,-48.459,33.391,-247.104,128.921,-391.687,-310.483,484.500,143.760,1376.780
689,47600.705000,-59.228,38.451,-239.197,123.042,-392.602,-309.394,501.500,357.760,1450.780
690,47600.724000,-52.375,40.474,-235.243,106.477,-392.447,-313.039,502.500,422.760,1474.780
691,47600.756000,-32.795,40.474,-235.243,99.637,-395.287,-311.930,485.500,313.760,1494.780
692,47600.765000,-44.543,37.439,-233.266,83.990,-396.112,-311.652,456.500,192.760,1505.780
693,47600.779000,-59.228,37.439,-234.255,83.072,-397.068,-314.588,435.500,293.760,1521.780
694,47600.796000,-52.375,39.462,-231.290,63.527,-393.985,-317.199,408.500,332.760,1511.780
695,47600.816000,-41.606,39.462,-228.324,46.850,-392.868,-314.937,358.500,182.760,1487.780
696,47600.842000,-50.417,33.391,-234.255,41.058,-397.650,-316.797,324.500,91.760,1467.780
697,47600.865000,-59.228,36.427,-234.255,26.346,-397.518,-314.568,311.500,178.760,1474.780
698,47600.887000,-51.396,35.415,-232.278,19.505,-396.488,-315.433,301.500,187.760,1435.780
699,47600.901000,-62.164,32.379,-240.185,-0.135,-394.378,-312.135,265.500,53.760,1416.780
700,47600.922000,-73.912,35.415,-236.232,-1.035,-397.268,-315.069,249.500,-18.240,1385.780
701,47600.957000,-72.933,41.486,-233.266,-13.808,-395.220,-312.876,241.500,54.760,1372.780
702,47600.972000,-60.207,34.403,-238.208,-34.426,-391.165,-310.547,222.500,116.760,1344.780
703,47600.992000,-60.207,33.391,-244.139,-43.197,-393.019,-311.374,190.500,0.760,1282.780
704,47601.10000,-71.954,37.439,-237.220,-54.966,-391.946,-310.183,179.500,-89.240,1243.780
705,47601.32000,-84.681,37.439,-239.197,-64.838,-386.054,-308.046,174.500,8.760,1236.780
706,47601.56000,-64.122,37.439,-239.197,-78.529,-383.026,-309.777,180.500,121.760,1200.780
707,47601.74000,-53.354,37.439,-239.197,-78.546,-384.962,-307.805,173.500,83.760,1182.780
708,47601.96000,-53.354,35.415,-244.139,-92.263,-380.967,-308.551,155.500,-104.240,1166.780
709,47601.119000,-75.870,36.427,-236.232,-103.104,-381.842,-303.436,149.500,-266.240,1153.780
710,47601.139000,-87.618,33.391,-230.301,-116.899,-380.755,-298.271,161.500,-167.240,1151.780
711,47601.161000,-60.207,32.379,-237.220,-124.754,-375.845,-299.123,162.500,-45.240,1115.780
712,47601.176000,-52.375,33.391,-242.162,-127.698,-374.851,-299.072,149.500,-196.240,1068.780
713,47601.198000,-72.933,36.427,-240.185,-142.462,-374.723,-293.888,134.500,-315.240,1054.780
714,47601.217000,-74.891,38.451,-234.255,-147.389,-374.680,-291.832,137.500,-259.240,1033.780
715,47601.238000,-64.122,38.451,-237.220,-151.355,-376.583,-287.822,133.500,-254.240,986.780
716,47601.260000,-64.122,38.451,-237.220,-165.114,-375.494,-284.627,132.500,-282.240,959.780
717,47601.289000,-72.933,39.462,-233.266,-172.051,-371.565,-281.555,131.500,-270.240,942.780
718,47601.302000,-69.017,41.486,-228.324,-185.804,-363.701,-282.305,151.500,-170.240,969.780
719,47601.322000,-65.101,40.474,-224.371,-183.873,-364.688,-280.369,165.500,-136.240,992.780
720,47601.339000,-59.228,42.498,-215.475,-194.715,-359.755,-278.215,182.500,-158.240,1015.780
721,47601.361000,-81.744,37.439,-221.405,-204.561,-358.701,-275.088,181.500,-124.240,1051.780
722,47601.381000,-79.786,32.379,-226.347,-214.365,-350.870,-277.877,196.500,18.760,1092.780
723,47601.399000,-57.270,33.391,-222.394,-218.350,-345.031,-276.829,182.500,-47.240,1096.780
724,47601.421000,-69.017,29.344,-222.394,-232.067,-341.036,-277.576,150.500,-232.240,1077.780
725,47601.444000,-96.428,27.320,-225.359,-238.069,-334.215,-273.540,148.500,-245.240,1066.780
726,47601.469000,-99.365,30.356,-227.336,-240.009,-334.196,-274.490,153.500,-177.240,1045.780
727,47601.489000,-100.344,31.368,-228.324,-250.921,-327.331,-269.382,147.500,-153.240,1006.780
728,47601.511000,-116.987,27.320,-230.301,-259.729,-323.379,-271.200,140.500,-129.240,937.780
729,47601.542000,-122.860,30.356,-232.278,-260.752,-318.534,-271.188,138.500,-6.240,856.780
730,47601.561000,-116.987,28.332,-235.243,-258.804,-315.648,-272.210,115.500,35.760,769.780
731,47601.575000,-119.924,30.356,-239.197,-275.518,-306.790,-271.925,91.500,-20.240,666.780
732,47601.591000,-138.524,28.332,-240.185,-273.597,-302.938,-271.963,77.500,-32.240,559.780
733,47601.609000,-137.545,28.332,-240.185,-278.455,-302.892,-273.846,66.500,-2.240,435.780
734,47601.631000,-128.734,28.332,-240.185,-280.455,-301.909,-271.843,46.500,-22.240,363.780
735,47601.649000,-131.671,28.332,-238.208,-286.353,-300.889,-270.755,-0.500,-110.240,218.780
736,47601.674000,-134.608,27.320,-241.174,-286.413,-301.860,-266.815,-49.500,-166.240,88.780
737,47601.696000,-131.671,31.368,-243.151,-284.465,-300.911,-266.851,-74.500,-152.240,-24.220
738,47601.711000,-131.671,32.379,-238.208,-282.551,-301.899,-263.930,-84.500,-123.240,-125.220
739,47601.734000,-124.818,32.379,-239.197,-276.635,-306.789,-264.029,-98.500,-140.240,-229.220
740,47601.756000,-119.924,34.403,-238.208,-283.511,-307.696,-261.938,-104.500,-174.240,-332.220
741,47601.771000,-126.776,33.391,-236.232,-278.634,-313.549,-258.079,-106.500,-102.240,-432.220
742,47601.794000,-129.713,34.403,-234.255,-279.621,-314.509,-257.076,-102.500,21.760,-516.220
743,47601.821000,-119.924,35.415,-234.255,-269.758,-315.561,-261.187,-101.500,46.760,-563.220
744,47601.840000,-119.924,41.486,-230.301,-265.781,-322.368,-261.250,-106.500,48.760,-630.220
745,47601.859000,-123.839,40.474,-228.324,-256.974,-328.256,-258.445,-101.500,82.760,-680.220
746,47601.881000,-116.008,37.439,-226.347,-255.891,-328.259,-264.371,-112.500,50.760,-737.220
747,47601.896000,-116.987,38.451,-228.324,-253.889,-336.985,-262.427,-128.500,10.760,-824.220
748,47601.921000,-135.587,42.498,-229.313,-242.051,-341.926,-265.584,-117.500,153.760,-894.220
749,47601.939000,-128.734,40.474,-225.359,-233.288,-341.041,-263.772,-118.500,220.760,-931.220
750,47601.961000,-97.407,40.474,-226.347,-229.251,-348.813,-266.787,-180.500,-46.240,-1016.220
751,47601.979000,-109.155,45.534,-225.359,-225.300,-356.589,-264.879,-237.500,-152.240,-1103.220
752,47602.0,-132.650,47.557,-223.382,-212.492,-362.508,-267.068,-254.500,-97.240,-1150.220
753,47602.21000,-125.797,45.534,-228.324,-206.672,-364.500,-263.231,-276.500,42.760,-1255.220
754,47602.38000,-113.071,45.534,-232.278,-196.729,-374.259,-267.333,-283.500,37.760,-1332.220
755,47602.61000,-114.050,51.605,-230.301,-182.103,-378.267,-262.665,-299.500,45.760,-1377.220
756,47602.84000,-111.113,57.676,-229.313,-172.230,-382.222,-265.788,-303.500,64.760,-1423.220
757,47602.101000,-98.386,53.628,-232.278,-154.606,-391.093,-262.152,-307.500,32.760,-1477.220
758,47602.119000,-97.407,59.700,-232.278,-151.539,-397.888,-266.136,-322.500,-17.240,-1531.220
759,47602.137000,-99.365,55.652,-235.243,-132.887,-400.957,-268.431,-344.500,-21.240,-1568.220
760,47602.160000,-93.491,57.676,-234.255,-125.040,-406.835,-266.594,-349.500,-9.240,-1616.220
761,47602.205000,-91.533,60.711,-234.255,-104.491,-408.957,-265.971,-359.500,-5.240,-1636.220
762,47602.224000,-86.639,61.723,-231.290,-85.881,-414.933,-264.324,-364.500,-7.240,-1673.220
763,47602.232000,-83.702,62.735,-232.278,-73.064,-421.818,-266.512,-375.500,5.760,-1702.220
764,47602.272000,-75.870,61.723,-235.243,-56.447,-420.035,-266.808,-388.500,26.760,-1721.220
765,47602.275000,-69.996,58.688,-231.290,-49.528,-423.965,-268.895,-394.500,9.760,-1735.220
766,47602.282000,-74.891,58.688,-228.324,-25.956,-429.981,-271.274,-393.500,6.760,-1734.220
767,47602.304000,-71.954,58.688,-229.313,-16.180,-427.166,-272.434,-393.500,85.760,-1707.220
768,47602.316000,-54.333,54.640,-231.290,-1.539,-423.430,-272.698,-396.500,88.760,-1692.220
769,47602.348000,-54.333,53.628,-234.255,11.252,-425.478,-275.875,-401.500,37.760,-1690.220
770,47602.366000,-65.101,48.569,-233.266,29.765,-424.683,-272.266,-400.500,-38.240,-1678.220
771,47602.384000,-55.312,47.557,-234.255,50.390,-420.026,-279.527,-393.500,5.760,-1637.220
772,47602.406000,-52.375,45.534,-232.278,57.248,-421.056,-279.647,-382.500,0.760,-1604.220
773,47602.429000,-53.354,43.510,-233.266,75.821,-417.354,-280.965,-369.500,-42.240,-1558.220
774,47602.449000,-48.459,42.498,-236.232,89.459,-414.579,-279.240,-366.500,-33.240,-1499.220
775,47602.462000,-44.543,36.427,-238.208,103.217,-409.860,-285.396,-363.500,-71.240,-1443.220
776,47602.490000,-53.354,35.415,-233.266,113.037,-411.883,-286.552,-346.500,-91.240,-1399.220
777,47602.507000,-55.312,33.391,-232.278,120.795,-408.087,-284.725,-324.500,14.760,-1329.220
778,47602.528000,-35.732,29.344,-235.243,138.467,-405.340,-289.963,-315.500,29.760,-1295.220
779,47602.554000,-35.732,24.285,-236.232,141.332,-399.563,-289.036,-321.500,-109.240,-1255.220
780,47602.573000,-63.143,22.261,-234.255,154.087,-397.741,-292.217,-333.500,-191.240,-1217.220
781,47602.589000,-63.143,22.261,-235.243,164.832,-393.968,-293.396,-321.500,17.760,-1164.220
782,47602.607000,-39.648,18.213,-239.197,180.469,-388.304,-295.648,-313.500,84.760,-1136.220
783,47602.635000,-40.627,14.166,-235.243,178.467,-383.449,-295.618,-326.500,-76.240,-1126.220
784,47602.680000,-62.164,14.166,-234.255,192.200,-379.700,-299.804,-332.500,-67.240,-1082.220
785,47602.694000,-65.101,12.142,-233.266,201.004,-370.102,-304.893,-310.500,122.760,-1025.220
786,47602.702000,-47.480,6.071,-232.278,212.789,-369.238,-308.056,-313.500,131.760,-1006.220
787,47602.720000,-43.564,11.130,-234.255,212.769,-357.624,-312.991,-328.500,69.760,-1007.220
788,47602.742000,-62.164,9.107,-237.220,215.670,-359.589,-310.087,-355.500,9.760,-991.220
789,47602.766000,-61.185,7.083,-234.255,227.496,-351.947,-319.165,-342.500,184.760,-959.220
790,47602.785000,-33.774,7.083,-239.197,228.439,-346.151,-320.173,-352.500,161.760,-970.220
791,47602.807000,-32.795,11.130,-241.174,244.111,-342.421,-323.408,-388.500,-57.240,-984.220
792,47602.830000,-52.375,9.107,-239.197,247.009,-330.835,-327.411,-389.500,-7.240,-953.220
793,47602.850000,-42.585,6.071,-238.208,251.926,-324.103,-332.428,-377.500,148.760,-897.220
794,47602.871000,-17.132,6.071,-245.127,257.802,-313.509,-338.451,-371.500,80.760,-859.220
795,47602.886000,-17.132,5.059,-244.139,251.949,-315.390,-338.345,-373.500,-38.240,-802.220
796,47602.904000,-33.774,5.059,-245.127,261.637,-306.773,-337.542,-372.500,1.760,-766.220
797,47602.917000,-29.859,7.083,-251.058,256.830,-302.852,-344.353,-337.500,209.760,-678.220
798,47602.937000,-8.321,3.036,-254.023,259.711,-291.267,-347.371,-296.500,264.760,-613.220
799,47602.966000,-15.174,3.036,-255.012,262.715,-291.290,-351.362,-265.500,222.760,-529.220
800,47602.989000,-23.985,1.012,-251.058,265.666,-283.573,-356.345,-214.500,315.760,-407.220
801,47603.6000,-2.447,-1.012,-253.035,270.487,-275.878,-356.440,-184.500,218.760,-341.220
802,47603.39000,-3.426,0.000,-254.023,272.522,-276.859,-360.412,-189.500,10.760,-304.220
803,47603.66000,-27.901,-2.024,-256.000,262.719,-272.900,-361.228,-169.500,58.760,-248.220
804,47603.85000,-15.174,-2.024,-258.965,267.628,-271.007,-363.286,-154.500,44.760,-206.220
805,47603.94000,-3.426,0.000,-259.954,271.559,-269.106,-365.327,-151.500,-21.240,-192.220
806,47603.115000,-14.195,3.036,-260.942,260.796,-270.944,-364.150,-128.500,-77.240,-131.220
807,47603.131000,-14.195,1.012,-262.919,266.615,-269.065,-362.286,-89.500,4.760,-41.220
808,47603.161000,-6.363,2.024,-263.907,265.819,-273.885,-370.142,-47.500,58.760,41.780
809,47603.176000,-4.405,4.047,-261.931,262.797,-271.927,-366.153,-15.500,69.760,127.780
810,47603.199000,-7.342,1.012,-263.907,261.905,-273.849,-370.072,14.500,103.760,206.780
811,47603.221000,-5.384,3.036,-266.873,262.788,-272.896,-365.167,43.500,110.760,274.780
812,47603.230000,0.489,3.036,-266.873,260.900,-270.938,-370.058,75.500,22.760,325.780
813,47603.259000,3.426,4.047,-264.896,253.064,-273.771,-367.947,100.500,-42.240,384.780
814,47603.284000,4.405,9.107,-264.896,253.092,-282.481,-364.984,106.500,-140.240,420.780
815,47603.301000,-9.300,9.107,-262.919,247.292,-286.295,-366.846,140.500,-60.240,512.780
816,47603.315000,-2.447,9.107,-262.919,246.253,-289.193,-361.902,188.500,14.760,597.780
817,47603.337000,13.216,15.178,-261.931,244.306,-294.015,-359.893,211.500,-78.240,680.780
818,47603.355000,0.489,19.225,-262.919,243.364,-301.747,-357.898,225.500,-127.240,773.780
819,47603.377000,9.300,19.225,-258.965,236.481,-303.622,-354.821,276.500,-21.240,881.780
820,47603.405000,18.111,24.285,-255.012,229.659,-310.334,-352.724,320.500,-8.240,989.780
821,47603.422000,11.258,26.308,-256.988,221.815,-316.071,-348.640,342.500,-116.240,1094.780
822,47603.461000,-0.489,26.308,-255.012,223.791,-321.895,-346.699,357.500,-133.240,1207.780
823,47603.464000,8.321,31.368,-250.069,213.056,-332.443,-342.559,401.500,-85.240,1258.780
824,47603.485000,5.384,35.415,-251.058,198.347,-341.990,-335.397,426.500,-131.240,1331.780
825,47603.533000,-15.174,39.462,-251.058,202.298,-351.703,-332.502,438.500,-201.240,1406.780
826,47603.533000,-23.006,40.474,-246.116,181.664,-357.328,-324.255,461.500,-130.240,1492.780
827,47603.546000,-12.237,43.510,-238.208,173.960,-364.993,-327.063,490.500,-39.240,1579.780
828,47603.566000,-19.090,45.534,-239.197,158.272,-374.532,-319.883,490.500,-116.240,1633.780
829,47603.589000,-38.669,46.545,-237.220,157.329,-380.328,-318.875,491.500,-154.240,1680.780
830,47603.614000,-46.501,47.557,-232.278,139.657,-385.011,-312.650,512.500,-48.240,1730.780
831,47603.640000,-47.480,50.593,-235.243,125.934,-393.599,-306.490,512.500,6.760,1746.780
832,47603.650000,-49.438,51.605,-233.266,105.439,-397.280,-307.108,502.500,72.760,1758.780
833,47603.672000,-56.291,51.605,-231.290,87.800,-398.090,-304.826,487.500,122.760,1779.780
834,47603.695000,-53.354,53.628,-227.336,81.013,-402.863,-305.685,476.500,221.760,1799.780
835,47603.710000,-45.522,49.581,-229.313,61.417,-401.719,-304.355,443.500,186.760,1806.780
836,47603.732000,-56.291,52.617,-234.255,50.706,-403.554,-306.132,391.500,20.760,1776.780
837,47603.750000,-76.849,51.605,-232.278,33.976,-404.376,-299.929,383.500,48.760,1771.780
838,47603.772000,-70.975,55.652,-232.278,15.507,-408.072,-304.520,388.500,198.760,1763.780
839,47603.800000,-56.291,52.617,-232.278,2.725,-403.120,-303.315,353.500,109.760,1745.780
840,47603.817000,-68.038,50.593,-236.232,-14.923,-402.962,-301.034,332.500,6.760,1731.780
841,47603.840000,-78.807,56.664,-233.266,-21.850,-403.872,-295.988,313.500,-92.240,1700.780
842,47603.854000,-86.639,58.688,-233.266,-42.372,-402.716,-297.595,308.500,-13.240,1667.780
843,47603.876000,-72.933,53.628,-231.290,-53.162,-399.716,-297.408,294.500,92.760,1618.780
844,47603.891000,-69.996,50.593,-235.243,-70.784,-398.588,-297.097,241.500,25.760,1542.780
845,47603.909000,-83.702,51.605,-235.243,-78.603,-399.484,-296.958,212.500,20.760,1504.780
846,47603.937000,-77.828,54.640,-229.313,-97.275,-386.737,-298.612,206.500,136.760,1473.780
847,47603.957000,-62.164,49.581,-230.301,-109.027,-383.727,-299.392,171.500,99.760,1421.780
848,47603.979000,-59.228,49.581,-231.290,-115.928,-383.668,-296.316,125.500,-43.240,1370.780
849,47604.6000,-72.933,53.628,-230.301,-130.623,-381.599,-296.059,110.500,-69.240,1362.780
850,47604.26000,-61.185,54.640,-230.301,-144.402,-374.704,-294.838,92.500,-60.240,1355.780
851,47604.46000,-53.354,58.688,-232.278,-155.217,-374.609,-291.694,56.500,-206.240,1315.780
852,47604.62000,-77.828,53.628,-237.220,-160.223,-369.731,-287.673,43.500,-284.240,1285.780
853,47604.94000,-69.017,58.688,-233.266,-175.914,-369.591,-285.427,66.500,-186.240,1275.780
854,47604.113000,-63.143,59.700,-232.278,-187.797,-359.813,-282.275,84.500,-216.240,1272.780
855,47604.131000,-74.891,60.711,-232.278,-197.625,-358.759,-280.133,104.500,-248.240,1280.780
856,47604.141000,-72.933,63.747,-229.313,-210.398,-354.774,-278.927,122.500,-243.240,1294.780
857,47604.162000,-77.828,61.723,-231.290,-215.379,-348.927,-276.877,164.500,-229.240,1315.780
858,47604.182000,-84.681,61.723,-229.313,-231.148,-343.952,-272.666,192.500,-216.240,1325.780
859,47604.204000,-88.597,60.711,-231.290,-234.110,-341.023,-272.617,240.500,-242.240,1365.780
860,47604.226000,-90.554,61.723,-234.255,-245.067,-331.257,-266.528,267.500,-347.240,1372.780
861,47604.240000,-105.239,64.759,-233.266,-257.814,-326.303,-267.293,296.500,-421.240,1332.780
862,47604.267000,-118.945,62.735,-234.255,-262.803,-323.361,-263.270,305.500,-333.240,1268.780
863,47604.287000,-123.839,55.652,-235.243,-269.757,-317.497,-260.201,294.500,-239.240,1187.780
864,47604.310000,-119.924,47.557,-230.301,-276.634,-312.597,-261.069,259.500,-257.240,1089.780
865,47604.337000,-125.797,45.534,-228.324,-285.546,-304.779,-258.952,216.500,-320.240,969.780
866,47604.355000,-137.545,42.498,-233.266,-288.516,-304.754,-256.930,182.500,-294.240,828.780
867,47604.371000,-141.461,42.498,-232.278,-293.462,-300.841,-255.863,169.500,-251.240,756.780
868,47604.392000,-137.545,42.498,-226.347,-297.376,-298.870,-256.780,137.500,-207.240,624.780
869,47604.412000,-134.608,41.486,-224.371,-298.416,-295.961,-254.796,89.500,-203.240,497.780
870,47604.436000,-132.650,40.474,-220.417,-304.347,-296.879,-250.753,32.500,-218.240,374.780
871,47604.464000,-132.650,40.474,-219.429,-302.417,-292.059,-251.777,-19.500,-227.240,254.780
872,47604.491000,-135.587,40.474,-219.429,-307.344,-293.952,-248.734,-53.500,-198.240,138.780
873,47604.510000,-139.503,39.462,-221.405,-307.404,-296.859,-243.807,-79.500,-102.240,35.780
874,47604.524000,-135.587,38.451,-224.371,-305.412,-296.875,-245.812,-111.500,-46.240,-62.220
875,47604.537000,-122.860,37.439,-227.336,-306.434,-295.900,-243.826,-142.500,-63.240,-164.220
876,47604.555000,-124.818,38.451,-226.347,-305.419,-301.715,-242.852,-158.500,-96.240,-207.220
877,47604.570000,-127.755,41.486,-228.324,-307.403,-300.730,-241.834,-176.500,-58.240,-283.220
878,47604.597000,-119.924,43.510,-229.313,-301.505,-303.686,-241.935,-185.500,-42.240,-361.220
879,47604.622000,-119.924,47.557,-226.347,-300.499,-308.533,-240.963,-190.500,-39.240,-431.220
880,47604.639000,-119.924,46.545,-227.336,-303.434,-312.378,-238.937,-195.500,-6.240,-483.220
881,47604.657000,-116.987,47.557,-227.336,-294.583,-317.295,-239.088,-200.500,32.760,-542.220
882,47604.675000,-116.987,47.557,-225.359,-291.665,-315.387,-239.142,-203.500,57.760,-593.220
883,47604.692000,-115.029,48.569,-223.382,-289.681,-322.178,-237.200,-210.500,73.760,-640.220
884,47604.715000,-115.029,48.569,-222.394,-285.826,-327.057,-231.356,-227.500,75.760,-687.220
885,47604.745000,-116.008,49.581,-221.405,-282.786,-329.013,-236.330,-234.500,78.760,-714.220
886,47604.767000,-116.008,49.581,-219.429,-275.866,-334.879,-237.430,-239.500,100.760,-757.220
887,47604.785000,-116.008,51.605,-221.405,-272.938,-337.810,-235.509,-241.500,132.760,-784.220
888,47604.807000,-110.134,53.628,-220.417,-269.906,-346.542,-236.537,-243.500,142.760,-815.220
889,47604.830000,-112.092,54.640,-223.382,-260.147,-345.665,-235.726,-251.500,136.760,-857.220
890,47604.850000,-114.050,51.605,-226.347,-253.235,-352.499,-235.841,-257.500,157.760,-902.220
891,47604.880000,-112.092,52.617,-227.336,-241.380,-357.439,-239.982,-267.500,197.760,-956.220
892,47604.894000,-109.155,54.640,-227.336,-245.301,-362.243,-236.954,-276.500,223.760,-1005.220
893,47604.907000,-108.176,54.640,-230.301,-231.550,-364.301,-239.164,-281.500,221.760,-1056.220
894,47604.921000,-103.281,51.605,-231.290,-220.699,-368.265,-242.305,-288.500,212.760,-1080.220
895,47604.942000,-100.344,53.628,-228.324,-219.597,-376.010,-245.268,-298.500,193.760,-1126.220
896,47604.969000,-99.365,55.652,-229.313,-212.738,-378.976,-244.402,-310.500,186.760,-1163.220
897,47604.991000,-98.386,57.676,-229.313,-197.056,-382.020,-244.676,-307.500,202.760,-1189.220
898,47605.9000,-92.512,56.664,-228.324,-194.959,-387.838,-249.628,-305.500,221.760,-1211.220
899,47605.29000,-85.660,57.676,-227.336,-183.189,-394.718,-247.859,-305.500,206.760,-1229.220
900,47605.51000,-87.618,55.652,-226.347,-170.434,-394.832,-250.054,-305.500,171.760,-1241.220
901,47605.70000,-90.554,56.664,-226.347,-162.484,-398.768,-255.112,-313.500,224.760,-1246.220
902,47605.96000,-76.849,52.617,-229.313,-147.763,-399.867,-257.340,-311.500,244.760,-1247.220
903,47605.116000,-73.912,50.593,-225.359,-138.876,-410.589,-256.500,-314.500,153.760,-1268.220
904,47605.135000,-84.681,58.688,-222.394,-126.113,-409.735,-259.681,-326.500,81.760,-1281.220
905,47605.157000,-82.723,56.664,-227.336,-126.140,-404.897,-260.670,-332.500,157.760,-1266.220
906,47605.175000,-70.975,51.605,-226.347,-109.401,-410.849,-263.913,-332.500,164.760,-1267.220
907,47605.192000,-74.891,51.605,-225.359,-94.617,-420.656,-265.147,-357.500,105.760,-1278.220
908,47605.210000,-77.828,54.640,-228.324,-85.864,-414.932,-265.309,-373.500,150.760,-1280.220
909,47605.237000,-69.017,52.617,-232.278,-74.987,-419.863,-269.433,-384.500,153.760,-1299.220
910,47605.246000,-66.080,51.605,-234.255,-72.147,-416.991,-265.549,-405.500,94.760,-1326.220
911,47605.270000,-69.996,51.605,-236.232,-56.378,-421.966,-269.760,-409.500,76.760,-1332.220
912,47605.297000,-70.975,52.617,-238.208,-46.566,-423.022,-270.917,-403.500,111.760,-1321.220
913,47605.330000,-65.101,55.652,-240.185,-30.894,-421.227,-273.165,-399.500,129.760,-1319.220
914,47605.344000,-63.143,54.640,-237.220,-16.095,-423.290,-279.331,-387.500,106.760,-1314.220
915,47605.362000,-66.080,53.628,-236.232,-13.168,-424.285,-278.398,-366.500,141.760,-1286.220
916,47605.386000,-58.249,53.628,-241.174,0.575,-425.375,-280.608,-357.500,145.760,-1253.220
917,47605.398000,-54.333,52.617,-236.232,6.462,-421.556,-283.670,-333.500,75.760,-1221.220
918,47605.426000,-67.059,48.569,-231.290,25.088,-421.723,-285.969,-308.500,109.760,-1171.220
919,47605.444000,-72.933,47.557,-236.232,32.941,-418.889,-289.064,-295.500,236.760,-1126.220
920,47605.470000,-59.228,48.569,-242.162,42.846,-415.100,-298.104,-292.500,253.760,-1125.220
921,47605.485000,-60.207,47.557,-242.162,46.724,-411.266,-298.177,-279.500,225.760,-1135.220
922,47605.507000,-63.143,48.569,-244.139,58.482,-405.564,-302.330,-265.500,221.760,-1138.220
923,47605.527000,-53.354,47.557,-243.151,67.253,-401.774,-302.489,-259.500,169.760,-1130.220
924,47605.551000,-59.228,44.522,-240.185,77.099,-402.828,-305.616,-252.500,107.760,-1104.220
925,47605.575000,-67.059,44.522,-239.197,87.870,-398.086,-308.765,-225.500,161.760,-1074.220
926,47605.575000,-54.333,44.522,-235.243,91.835,-398.118,-311.789,-219.500,125.760,-1047.220
927,47605.605000,-46.501,42.498,-235.243,103.559,-392.419,-313.972,-246.500,-19.240,-1039.220
928,47605.621000,-68.038,40.474,-236.232,108.451,-390.528,-315.045,-243.500,-17.240,-1027.220
929,47605.647000,-73.912,40.474,-233.266,120.174,-384.828,-317.228,-230.500,149.760,-1017.220
930,47605.665000,-50.417,36.427,-237.220,127.066,-381.984,-321.291,-237.500,173.760,-1024.220
931,47605.683000,-41.606,35.415,-233.266,138.824,-380.154,-323.470,-272.500,1.760,-1039.220
932,47605.705000,-61.185,31.368,-233.266,147.586,-373.461,-324.617,-292.500,6.760,-1022.220
933,47605.727000,-61.185,32.379,-234.255,145.593,-367.638,-325.573,-279.500,150.760,-987.220
934,47605.753000,-43.564,30.356,-238.208,158.390,-364.846,-331.710,-283.500,94.760,-980.220
935,47605.793000,-39.648,30.356,-233.266,164.252,-361.996,-332.801,-299.500,-22.240,-958.220
936,47605.793000,-50.417,28.332,-233.266,170.096,-357.211,-333.895,-295.500,26.760,-907.220
937,47605.819000,-52.375,30.356,-235.243,183.819,-352.495,-338.081,-289.500,66.760,-864.220
938,47605.834000,-43.564,26.308,-234.255,182.814,-347.648,-339.053,-280.500,74.760,-847.220
939,47605.856000,-43.564,25.296,-233.266,188.683,-343.830,-341.130,-274.500,42.760,-807.220
940,47605.881000,-45.522,24.285,-235.243,192.606,-342.897,-342.185,-284.500,36.760,-765.220
941,47605.885000,-43.564,24.285,-237.220,195.592,-337.114,-348.152,-285.500,62.760,-735.220
942,47605.904000,-41.606,23.273,-239.197,203.375,-330.412,-349.282,-279.500,67.760,-709.220
943,47605.931000,-39.648,21.249,-241.174,207.305,-328.511,-351.322,-287.500,60.760,-672.220
944,47605.956000,-32.795,22.261,-243.151,201.390,-323.620,-351.223,-287.500,51.760,-627.220
945,47605.984000,-31.816,25.296,-243.151,204.360,-321.709,-354.232,-283.500,-5.240,-598.220
946,47606.8000,-37.690,21.249,-248.093,217.114,-317.951,-358.399,-279.500,-11.240,-577.220
947,47606.22000,-23.006,21.249,-250.069,208.351,-318.837,-360.212,-261.500,46.760,-517.220
948,47606.38000,-14.195,23.273,-254.023,210.210,-310.149,-359.271,-247.500,31.760,-455.220
949,47606.55000,-22.027,22.261,-256.988,216.168,-312.133,-363.312,-229.500,-49.240,-394.220
950,47606.84000,-19.090,20.237,-260.942,219.112,-309.256,-365.336,-191.500,-9.240,-307.220
951,47606.121000,-10.279,22.261,-258.965,214.245,-308.242,-367.220,-143.500,45.760,-214.220
952,47606.135000,-4.405,23.273,-263.907,219.121,-310.223,-365.335,-101.500,-2.240,-118.220
953,47606.157000,-8.321,22.261,-264.896,214.158,-306.311,-363.283,-53.500,-68.240,-21.220
954,47606.166000,-18.111,25.296,-264.896,222.055,-306.378,-367.360,3.500,-28.240,84.780
955,47606.184000,-14.195,21.249,-265.884,211.240,-308.219,-363.229,33.500,19.760,140.780
956,47606.204000,-7.342,22.261,-262.919,212.254,-310.162,-364.229,92.500,62.760,229.780
957,47606.231000,-11.258,24.285,-260.942,210.263,-312.082,-361.238,131.500,9.760,309.780
958,47606.247000,-17.132,23.273,-258.965,212.299,-316.935,-363.238,159.500,-29.240,395.780
959,47606.269000,-23.985,22.261,-256.988,205.389,-315.908,-360.163,188.500,-16.240,472.780
960,47606.294000,-27.901,26.308,-255.012,198.530,-314.878,-360.043,213.500,28.760,529.780
961,47606.309000,-23.985,24.285,-252.046,203.449,-317.825,-360.127,230.500,39.760,574.780
962,47606.341000,-27.901,27.320,-251.058,203.459,-320.728,-359.139,232.500,11.760,613.780
963,47606.359000,-39.648,24.285,-246.116,189.761,-324.475,-356.923,242.500,43.760,661.780
964,47606.377000,-34.753,20.237,-246.116,187.849,-331.230,-355.897,243.500,70.760,684.780
965,47606.392000,-23.985,24.285,-245.127,185.831,-328.312,-353.896,237.500,7.760,708.780
966,47606.415000,-37.690,23.273,-246.116,179.970,-336.969,-349.844,229.500,-104.240,733.780
967,47606.437000,-42.585,24.285,-247.104,182.033,-344.724,-351.841,233.500,-86.240,762.780
968,47606.455000,-33.774,28.332,-249.081,173.149,-345.617,-346.760,239.500,-92.240,786.780
969,47606.475000,-39.648,32.379,-251.058,168.241,-351.380,-342.729,247.500,-127.240,810.780
970,47606.497000,-42.585,33.391,-250.069,162.405,-353.261,-343.608,268.500,-106.240,845.780
971,47606.515000,-37.690,34.403,-251.058,153.566,-358.990,-338.522,296.500,-103.240,896.780
972,47606.539000,-35.732,33.391,-252.046,153.497,-360.930,-333.597,328.500,-161.240,947.780
973,47606.545000,-33.774,39.462,-253.035,144.745,-370.526,-331.462,343.500,-201.240,968.780
974,47606.564000,-42.585,41.486,-249.081,137.879,-376.272,-327.396,365.500,-253.240,1012.780
975,47606.594000,-52.375,39.462,-248.093,126.112,-377.134,-325.217,394.500,-170.240,1061.780
976,47606.611000,-39.648,39.462,-248.093,123.179,-386.787,-320.232,430.500,-131.240,1108.780
977,47606.632000,-37.690,43.510,-243.151,112.408,-389.593,-318.069,444.500,-228.240,1147.780
978,47606.659000,-51.396,44.522,-241.174,103.517,-397.261,-309.043,458.500,-223.240,1189.780
979,47606.684000,-55.312,41.486,-241.174,103.474,-398.231,-306.088,483.500,-133.240,1226.780
980,47606.699000,-45.522,42.498,-239.197,93.690,-403.949,-302.954,495.500,-175.240,1254.780
981,47606.716000,-46.501,45.534,-235.243,79.940,-407.699,-297.785,484.500,-243.240,1275.780
982,47606.747000,-67.059,43.510,-236.232,71.178,-412.456,-297.624,487.500,-238.240,1288.780
983,47606.765000,-71.954,45.534,-234.255,55.445,-413.286,-292.422,512.500,-37.240,1316.780
984,47606.781000,-55.312,43.510,-231.290,54.458,-414.246,-291.419,517.500,14.760,1330.780
985,47606.808000,-53.354,42.498,-231.290,38.708,-417.012,-284.246,487.500,-97.240,1335.780
986,47606.822000,-66.080,45.534,-229.313,32.934,-423.729,-286.105,472.500,-72.240,1354.780
987,47606.845000,-76.849,44.522,-227.336,20.169,-420.712,-284.898,466.500,66.760,1350.780
988,47606.872000,-69.996,40.474,-228.324,10.401,-418.686,-286.697,442.500,117.760,1332.780
989,47606.891000,-62.164,36.427,-229.313,-4.285,-417.585,-286.438,399.500,34.760,1315.780
990,47606.895000,-66.080,39.462,-230.301,-8.172,-420.452,-286.366,386.500,-5.240,1308.780
991,47606.946000,-70.975,42.498,-227.336,-19.941,-419.379,-285.175,373.500,-60.240,1299.780
992,47606.960000,-66.080,43.510,-227.336,-32.799,-421.207,-276.085,347.500,-137.240,1267.780
993,47606.975000,-69.996,41.486,-230.301,-44.550,-420.133,-275.878,310.500,-237.240,1238.780
994,47606.989000,-83.702,44.522,-230.301,-59.306,-417.100,-272.668,297.500,-213.240,1228.780
995,47607.11000,-84.681,46.545,-230.301,-66.180,-421.879,-268.602,300.500,-134.240,1211.780
996,47607.29000,-82.723,48.569,-232.278,-76.978,-419.847,-267.429,295.500,-113.240,1180.780
997,47607.51000,-85.660,48.569,-231.290,-80.919,-416.909,-267.363,290.500,-61.240,1154.780
998,47607.80000,-84.681,48.569,-226.347,-93.701,-413.893,-265.172,278.500,-15.240,1151.780
999,47607.91000,-80.765,42.498,-230.301,-101.512,-411.885,-267.005,277.500,-14.240,1140.780
1000,47607.109000,-82.723,42.498,-227.336,-115.307,-406.926,-263.813,262.500,-30.240,1130.780
