Sample, Time, ACCX, ACCY, ACCZ, MAGX, MAGY, MAGZ, GYRX, GYRY, GYRZ
0,47701.764000,-56.291,-12.142,-241.174,26.225,-397.525,-307.675,7.500,-15.240,2.780
1,47701.790000,-54.333,-12.142,-239.197,22.433,-401.354,-312.526,10.500,1.760,3.780
2,47701.821000,-53.354,-13.154,-238.208,18.450,-401.323,-308.518,5.500,-8.240,0.780
3,47701.850000,-54.333,-11.130,-240.185,20.381,-402.310,-306.582,2.500,-15.240,-0.220
4,47701.856000,-54.333,-11.130,-240.185,22.381,-401.357,-309.572,2.500,-21.240,-0.220
5,47701.875000,-54.333,-12.142,-238.208,25.299,-401.385,-308.639,1.500,-6.240,2.780
6,47701.905000,-54.333,-12.142,-238.208,23.333,-400.400,-308.605,-1.500,-4.240,2.780
7,47701.926000,-54.333,-13.154,-240.185,25.369,-405.253,-310.604,-7.500,-19.240,0.780
8,47701.935000,-52.375,-14.166,-240.185,24.416,-402.339,-313.544,-11.500,-28.240,-1.220
9,47701.957000,-56.291,-12.142,-241.174,20.407,-401.341,-308.552,-9.500,-28.240,0.780
10,47701.980000,-56.291,-12.142,-241.174,23.333,-398.464,-309.592,-6.500,-11.240,2.780
11,47702.3000,-54.333,-13.154,-241.174,26.251,-400.427,-307.672,-2.500,-3.240,5.780
12,47702.23000,-53.354,-13.154,-241.174,20.415,-400.372,-309.538,-4.500,-12.240,4.780
13,47702.45000,-55.312,-13.154,-241.174,20.458,-401.338,-311.506,-6.500,-27.240,5.780
14,47702.67000,-58.249,-13.154,-241.174,21.402,-401.348,-309.554,-3.500,-22.240,4.780
15,47702.82000,-56.291,-13.154,-239.197,24.347,-402.343,-309.605,0.500,-2.240,2.780
16,47702.105000,-56.291,-12.142,-241.174,19.454,-400.362,-310.505,0.500,-0.240,0.780
17,47702.125000,-56.291,-11.130,-239.197,17.410,-398.414,-306.534,-6.500,-3.240,-3.220
18,47702.147000,-56.291,-11.130,-242.162,24.355,-401.374,-310.591,-7.500,3.760,-5.220
19,47702.165000,-56.291,-10.119,-241.174,24.294,-398.474,-308.624,-3.500,-1.240,-7.220
20,47702.206000,-54.333,-10.119,-240.185,17.506,-403.248,-309.483,-3.500,-5.240,-9.220
21,47702.228000,-55.312,-10.119,-242.162,27.230,-402.372,-306.703,-5.500,-26.240,-5.220
22,47702.230000,-55.312,-9.107,-242.162,28.200,-403.349,-305.734,-1.500,-13.240,-1.220
23,47702.249000,-56.291,-11.130,-242.162,22.337,-400.392,-307.603,-1.500,-13.240,-1.220
24,47702.271000,-56.291,-11.130,-242.162,19.358,-399.400,-305.583,-1.500,-14.240,-4.220
25,47702.294000,-54.333,-12.142,-241.174,22.338,-402.328,-306.616,3.500,-1.240,-6.220
26,47702.314000,-56.291,-10.119,-242.162,25.282,-403.322,-306.667,1.500,0.760,-6.220
27,47702.335000,-55.312,-11.130,-241.174,15.522,-398.392,-310.438,-0.500,2.760,-6.220
28,47702.349000,-54.333,-11.130,-241.174,23.290,-401.370,-305.650,1.500,-8.240,-7.220
29,47702.360000,-55.312,-10.119,-240.185,23.350,-400.399,-309.590,4.500,-5.240,-6.220
30,47702.379000,-53.354,-12.142,-239.197,25.255,-400.420,-306.670,4.500,-10.240,-5.220
31,47702.407000,-53.354,-11.130,-239.197,22.347,-403.295,-306.615,3.500,-24.240,-3.220
32,47702.420000,-57.270,-12.142,-242.162,21.324,-400.385,-305.616,5.500,-13.240,-1.220
33,47702.451000,-55.312,-10.119,-240.185,23.334,-402.336,-307.618,7.500,-3.240,2.780
34,47702.487000,-54.333,-11.130,-241.174,23.289,-397.499,-307.623,3.500,-17.240,-1.220
35,47702.501000,-56.291,-12.142,-241.174,21.324,-398.449,-306.603,2.500,-13.240,-4.220
36,47702.515000,-57.270,-10.119,-240.185,27.222,-403.341,-305.717,0.500,-1.240,-6.220
37,47702.537000,-57.270,-11.130,-241.174,26.278,-403.330,-307.669,4.500,5.760,-7.220
38,47702.557000,-54.333,-11.130,-241.174,23.386,-404.268,-309.586,4.500,0.760,-7.220
39,47702.580000,-57.270,-10.119,-242.162,29.222,-404.324,-307.720,6.500,-0.240,-4.220
40,47702.603000,-56.291,-11.130,-240.185,22.364,-401.358,-308.587,8.500,8.760,-3.220
41,47702.624000,-54.333,-11.130,-240.185,22.381,-401.357,-309.572,6.500,3.760,-7.220
42,47702.639000,-55.312,-11.130,-239.197,24.347,-404.278,-308.618,6.500,-1.240,-9.220
43,47702.656000,-54.333,-12.142,-240.185,23.299,-404.273,-304.662,8.500,-12.240,-7.220
44,47702.687000,-57.270,-13.154,-239.197,24.347,-404.278,-308.618,5.500,-20.240,-5.220
45,47702.708000,-56.291,-12.142,-239.197,23.343,-405.239,-306.631,6.500,-8.240,-6.220
46,47702.725000,-55.312,-11.130,-238.208,23.325,-403.304,-306.633,4.500,-7.240,-9.220
47,47702.746000,-54.333,-9.107,-242.162,27.169,-399.472,-304.736,-0.500,-20.240,-10.220
48,47702.767000,-55.312,-10.119,-239.197,27.300,-404.304,-309.655,-1.500,-33.240,-7.220
49,47702.785000,-57.270,-12.142,-241.174,25.238,-400.421,-305.685,-2.500,-33.240,-6.220
50,47702.811000,-55.312,-9.107,-238.208,19.412,-405.204,-305.577,0.500,-7.240,-2.220
51,47702.826000,-55.312,-12.142,-239.197,22.347,-403.295,-306.615,4.500,9.760,3.780
52,47702.854000,-53.354,-11.130,-240.185,24.260,-400.412,-305.668,5.500,-0.240,2.780
53,47702.886000,-54.333,-13.154,-238.208,27.222,-403.341,-305.717,5.500,-9.240,9.780
54,47702.900000,-56.291,-13.154,-238.208,26.278,-405.266,-306.683,3.500,-3.240,15.780
55,47702.900000,-56.291,-12.142,-240.185,26.270,-406.234,-305.697,1.500,-1.240,13.780
56,47702.927000,-56.291,-12.142,-239.197,26.225,-399.461,-306.688,-0.500,2.760,9.780
57,47702.945000,-55.312,-12.142,-240.185,20.407,-401.341,-308.552,-0.500,4.760,7.780
58,47702.962000,-56.291,-13.154,-241.174,22.277,-399.427,-304.650,-2.500,0.760,7.780
59,47702.985000,-56.291,-11.130,-239.197,25.291,-404.289,-306.666,-2.500,5.760,9.780
60,47703.7000,-54.333,-13.154,-240.185,21.298,-399.419,-304.632,-1.500,5.760,10.780
61,47703.21000,-56.291,-13.154,-240.185,24.329,-402.344,-308.620,-0.500,-4.240,8.780
62,47703.46000,-58.249,-9.107,-241.174,23.308,-403.305,-305.648,3.500,2.760,10.780
63,47703.69000,-55.312,-12.142,-241.174,22.372,-400.390,-309.572,4.500,3.760,10.780
64,47703.95000,-55.312,-13.154,-240.185,20.320,-401.345,-303.628,1.500,-5.240,10.780
65,47703.115000,-57.270,-12.142,-241.174,19.402,-402.301,-306.564,-2.500,-17.240,9.780
66,47703.132000,-58.249,-11.130,-239.197,24.277,-400.411,-306.653,-0.500,-5.240,8.780
67,47703.150000,-57.270,-12.142,-240.185,22.294,-401.362,-304.648,2.500,9.760,5.780
68,47703.177000,-55.312,-11.130,-239.197,21.368,-403.286,-306.598,3.500,10.760,2.780
69,47703.197000,-56.291,-11.130,-240.185,19.437,-402.299,-308.534,2.500,2.760,1.780
70,47703.224000,-55.312,-12.142,-240.185,22.372,-402.326,-308.586,3.500,15.760,-0.220
71,47703.251000,-55.312,-12.142,-239.197,18.406,-398.421,-307.536,3.500,7.760,2.780
72,47703.266000,-55.312,-13.154,-240.185,20.371,-399.407,-307.569,1.500,-7.240,4.780
73,47703.289000,-55.312,-13.154,-240.185,21.351,-403.287,-305.613,2.500,-5.240,3.780
74,47703.302000,-55.312,-12.142,-240.185,27.248,-402.371,-307.688,2.500,6.760,3.780
75,47703.321000,-56.291,-13.154,-239.197,23.308,-403.305,-305.648,2.500,8.760,1.780
76,47703.341000,-54.333,-12.142,-240.185,19.375,-397.463,-307.554,-0.500,8.760,-0.220
77,47703.361000,-55.312,-10.119,-240.185,19.428,-401.332,-308.535,-3.500,-1.240,-2.220
78,47703.376000,-55.312,-12.142,-240.185,25.360,-404.285,-310.605,-5.500,-2.240,-2.220
79,47703.402000,-53.354,-12.142,-240.185,21.350,-399.416,-307.587,-7.500,-5.240,-2.220
80,47703.427000,-55.312,-13.154,-240.185,25.325,-402.351,-309.622,-5.500,-1.240,3.780
81,47703.436000,-54.333,-13.154,-242.162,28.217,-401.413,-307.706,-4.500,-0.240,6.780
82,47703.459000,-54.333,-13.154,-241.174,20.424,-403.275,-308.550,-8.500,-14.240,4.780
83,47703.479000,-58.249,-12.142,-242.162,21.350,-401.351,-306.600,-2.500,-14.240,6.780
84,47703.505000,-55.312,-11.130,-243.151,26.252,-404.299,-305.699,4.500,-2.240,7.780
85,47703.525000,-55.312,-12.142,-241.174,22.320,-400.393,-306.618,6.500,-9.240,5.780
86,47703.542000,314.738,234.751,96.865,11.370,-413.856,-288.689,-1048.500,-944.240,547.780
87,47703.565000,-76.849,-91.067,-212.510,7.407,-427.374,-278.758,-763.500,-1982.240,207.780
88,47703.582000,-309.843,-19.225,-289.606,6.461,-417.684,-285.644,232.500,898.760,-315.220
89,47703.605000,-106.218,24.285,-249.081,14.390,-408.071,-296.624,590.500,1688.760,-112.220
90,47703.632000,2.447,-31.368,-224.371,15.521,-394.520,-312.411,448.500,1415.760,-66.220
91,47703.651000,67.059,-71.842,-220.417,17.530,-396.471,-314.414,-125.500,294.760,70.780
92,47703.684000,-70.975,24.285,-261.931,18.441,-400.355,-308.519,-114.500,-394.240,-87.220
93,47703.697000,-71.954,-6.071,-262.919,20.433,-404.243,-308.549,-29.500,-135.240,11.780
94,47703.712000,-56.291,-6.071,-257.977,18.425,-406.164,-304.574,-34.500,-158.240,4.780
95,47703.735000,-75.870,-2.024,-264.896,9.608,-399.309,-307.379,29.500,56.760,4.780
96,47703.752000,-60.207,-3.036,-256.000,18.423,-400.356,-307.534,59.500,126.760,-8.220
97,47703.776000,-50.417,-6.071,-249.081,15.566,-401.293,-311.420,57.500,68.760,-8.220
98,47703.797000,-47.480,-7.083,-245.127,17.471,-401.314,-308.500,49.500,-30.240,-1.220
99,47703.812000,-52.375,-8.095,-245.127,18.431,-397.452,-309.506,46.500,-71.240,-2.220
100,47703.841000,-60.207,-9.107,-241.174,19.542,-406.165,-312.469,51.500,-48.240,-11.220
101,47703.855000,-61.185,-9.107,-239.197,14.518,-401.288,-307.464,56.500,25.760,-13.220
102,47703.884000,-54.333,-10.119,-238.208,23.367,-398.462,-311.561,50.500,37.760,-11.220
103,47703.921000,-52.375,-10.119,-236.232,21.377,-402.318,-307.584,41.500,6.760,-8.220
104,47703.921000,-52.375,-12.142,-236.232,26.321,-402.359,-310.625,34.500,-10.240,-6.220
105,47703.940000,-51.396,-11.130,-237.220,19.410,-399.397,-308.537,30.500,-11.240,-5.220
106,47703.962000,-54.333,-10.119,-238.208,17.472,-403.250,-307.514,23.500,10.760,-2.220
107,47703.982000,43.564,-98.150,-159.135,14.517,-395.481,-310.424,-239.500,-1212.240,818.780
108,47704.2000,-294.180,-95.115,-282.687,3.517,-416.690,-285.593,-876.500,-1841.240,552.780
109,47704.11000,-122.860,50.593,-248.093,10.529,-409.968,-298.523,26.500,236.760,-395.220
110,47704.41000,-22.027,-19.225,-227.336,17.472,-405.185,-306.527,385.500,1240.760,-95.220
111,47704.64000,-24.964,-28.332,-239.197,20.527,-397.462,-317.419,241.500,871.760,-27.220
112,47704.81000,23.985,-30.356,-236.232,13.694,-393.527,-320.256,90.500,374.760,17.780
113,47704.99000,-68.038,18.213,-258.965,21.452,-391.667,-317.442,-126.500,-331.240,-83.220
114,47704.121000,-63.143,-12.142,-256.988,19.496,-397.456,-314.447,-46.500,-185.240,33.780
115,47704.144000,-67.059,-3.036,-259.954,19.453,-398.426,-311.492,-36.500,-108.240,9.780
116,47704.161000,-69.996,-3.036,-259.954,13.599,-396.436,-313.360,-17.500,-26.240,6.780
117,47704.179000,-49.438,-5.059,-249.081,21.480,-400.376,-314.479,27.500,142.760,-3.220
118,47704.206000,-47.480,-6.071,-247.104,15.608,-396.451,-316.349,29.500,80.760,-13.220
119,47704.229000,-51.396,-6.071,-247.104,15.643,-396.449,-318.318,21.500,-14.240,-5.220
120,47704.251000,-54.333,-6.071,-245.127,14.570,-399.349,-311.405,21.500,-61.240,-3.220
121,47704.273000,-57.270,-8.095,-243.151,21.471,-397.473,-315.467,34.500,-32.240,-5.220
122,47704.287000,-54.333,-7.083,-243.151,15.600,-399.355,-314.376,43.500,33.760,-4.220
123,47704.319000,-47.480,-9.107,-239.197,-226.114,-394.256,-310.106,43.500,21.760,-5.220
124,47704.326000,-50.417,-9.107,-240.185,22.371,-396.518,-311.546,34.500,-35.240,-6.220
125,47704.341000,-54.333,-8.095,-240.185,12.656,-398.361,-314.325,31.500,-47.240,-7.220
126,47704.354000,-54.333,-9.107,-240.185,16.526,-395.496,-313.413,30.500,-27.240,-9.220
127,47704.389000,-53.354,-9.107,-240.185,18.457,-398.419,-310.490,31.500,6.760,-7.220
128,47704.411000,509.553,516.047,53.375,10.706,-393.504,-317.250,-502.500,200.760,-65.220
129,47704.429000,-254.042,-307.605,-226.347,-6.336,-422.412,-278.521,-1330.500,-3061.240,924.780
130,47704.449000,-256.979,35.415,-256.000,-11.298,-422.372,-274.495,-116.500,44.760,-492.220
131,47704.466000,-113.071,-15.178,-248.093,-4.244,-410.808,-292.354,374.500,1255.760,-147.220
132,47704.494000,-82.723,-75.889,-252.046,5.833,-401.201,-314.201,421.500,1501.760,-296.220
133,47704.511000,15.174,9.107,-250.069,14.689,-391.599,-322.245,289.500,1193.760,-113.220
134,47704.532000,46.501,70.830,-229.313,8.800,-387.675,-323.130,-68.500,405.760,65.780
135,47704.552000,-85.660,-18.213,-264.896,5.753,-392.495,-314.210,-180.500,-486.240,-19.220
136,47704.570000,-57.270,5.059,-271.815,5.831,-395.394,-317.161,-104.500,-300.240,-74.220
137,47704.590000,-78.807,0.000,-280.710,7.737,-397.350,-313.255,-60.500,-163.240,-25.220
138,47704.617000,-71.954,2.024,-272.803,6.792,-393.468,-317.181,24.500,151.760,-5.220
139,47704.644000,-44.543,0.000,-259.954,2.913,-393.430,-319.081,60.500,183.760,-11.220
140,47704.681000,-39.648,0.000,-255.012,14.681,-396.439,-319.286,63.500,27.760,-11.220
141,47704.681000,-46.501,-1.012,-252.046,12.707,-396.423,-318.266,62.500,-70.240,-16.220
142,47704.709000,-53.354,-3.036,-252.046,11.667,-391.578,-317.269,69.500,-81.240,-16.220
143,47704.724000,-57.270,-2.024,-249.081,9.745,-395.430,-317.231,76.500,-37.240,-16.220
144,47704.741000,-52.375,-4.047,-243.151,13.633,-392.563,-317.303,90.500,33.760,-20.220
145,47704.769000,-49.438,-6.071,-240.185,14.689,-393.535,-321.258,87.500,42.760,-21.220
146,47704.789000,-46.501,-9.107,-237.220,11.745,-394.477,-320.220,78.500,-5.240,-19.220
147,47704.804000,-47.480,-10.119,-237.220,14.699,-398.374,-319.284,68.500,-45.240,-17.220
148,47704.826000,-50.417,-8.095,-236.232,21.435,-393.603,-315.471,58.500,-27.240,-17.220
149,47704.841000,-50.417,-9.107,-232.278,13.685,-394.496,-319.270,50.500,6.760,-13.220
150,47704.864000,-50.417,-10.119,-231.290,13.581,-392.566,-314.348,38.500,23.760,-11.220
151,47704.884000,-44.543,-9.107,-232.278,22.492,-394.576,-319.426,30.500,4.760,-11.220
152,47704.906000,-47.480,-10.119,-233.266,21.487,-393.600,-318.425,11.500,-40.240,-14.220
153,47704.924000,-51.396,-10.119,-233.266,15.651,-395.481,-319.304,-2.500,-40.240,-14.220
154,47704.946000,-52.375,-10.119,-236.232,18.569,-395.509,-318.371,-10.500,-4.240,-9.220
155,47704.969000,-48.459,-11.130,-238.208,16.577,-391.621,-318.340,-14.500,16.760,-7.220
156,47704.989000,-48.459,-11.130,-238.208,14.647,-396.441,-317.316,-17.500,-3.240,-8.220
157,47705.2000,-50.417,-10.119,-241.174,17.556,-395.502,-316.384,-20.500,-6.240,-2.220
158,47705.40000,-50.417,-7.083,-241.174,16.533,-390.656,-316.372,-18.500,-5.240,0.780
159,47705.56000,-51.396,-9.107,-245.127,20.413,-394.565,-312.498,-17.500,-7.240,-0.220
160,47705.79000,-51.396,-8.095,-243.151,17.546,-390.663,-318.359,-17.500,-10.240,0.780
161,47705.92000,-52.375,-8.095,-243.151,13.641,-391.594,-318.288,-13.500,-13.240,1.780
162,47705.110000,-53.354,-7.083,-245.127,19.575,-400.355,-317.399,-7.500,-10.240,3.780
163,47705.126000,-53.354,-8.095,-245.127,20.430,-392.628,-314.470,-2.500,-14.240,1.780
164,47705.152000,-54.333,-6.071,-246.116,17.548,-396.470,-315.398,1.500,-14.240,-0.220
165,47705.170000,-53.354,-7.083,-244.139,13.616,-396.435,-314.344,4.500,-5.240,1.780
166,47705.191000,-53.354,-8.095,-244.139,15.582,-397.421,-314.378,7.500,-9.240,-5.220
167,47705.204000,-52.375,-7.083,-241.174,16.604,-398.395,-316.364,11.500,-13.240,-5.220
168,47705.231000,-53.354,-10.119,-239.197,15.616,-395.483,-317.334,7.500,-10.240,-7.220
169,47705.249000,-52.375,-10.119,-235.243,18.509,-396.480,-314.431,4.500,-14.240,-8.220
170,47705.270000,-51.396,-12.142,-230.301,16.613,-399.362,-316.363,-11.500,-24.240,-11.220
171,47705.291000,-44.543,-13.154,-228.324,20.543,-395.525,-319.390,-31.500,-18.240,-17.220
172,47705.314000,-47.480,-12.142,-228.324,13.617,-398.371,-313.358,-60.500,-5.240,-33.220
173,47705.330000,-43.564,-13.154,-229.313,14.629,-394.507,-317.318,-87.500,71.760,-34.220
174,47705.342000,-27.901,-11.130,-231.290,19.469,-392.618,-315.437,-108.500,126.760,-28.220
175,47705.381000,-29.859,-8.095,-235.243,11.754,-395.444,-320.219,-126.500,44.760,-15.220
176,47705.416000,-36.711,-5.059,-241.174,10.698,-394.472,-316.264,-132.500,-49.240,14.780
177,47705.430000,-45.522,-2.024,-245.127,13.677,-395.464,-318.284,-125.500,-82.240,39.780
178,47705.445000,-53.354,-3.036,-254.023,11.711,-396.415,-317.264,-103.500,-104.240,53.780
179,47705.462000,-56.291,-1.012,-249.081,6.809,-393.467,-318.165,-71.500,-79.240,65.780
180,47705.485000,-59.228,-1.012,-248.093,3.805,-393.444,-314.174,-47.500,-60.240,70.780
181,47705.500000,-62.164,-1.012,-248.093,9.754,-396.397,-317.230,-35.500,-29.240,68.780
182,47705.522000,-62.164,-2.024,-252.046,9.676,-393.498,-314.278,-40.500,-22.240,56.780
183,47705.540000,-63.143,0.000,-255.012,10.768,-398.340,-318.230,-37.500,-22.240,24.780
184,47705.562000,-61.185,0.000,-256.988,2.879,-395.368,-316.125,-20.500,18.760,-3.220
185,47705.581000,-55.312,0.000,-256.000,6.750,-396.374,-313.239,-10.500,48.760,-22.220
186,47705.604000,-48.459,-1.012,-256.988,4.774,-392.486,-314.193,-5.500,45.760,-21.220
187,47705.626000,-47.480,2.024,-258.965,5.709,-391.529,-312.241,2.500,-23.240,-12.220
188,47705.646000,-53.354,4.047,-256.000,6.741,-395.407,-313.240,14.500,-89.240,-5.220
189,47705.676000,-57.270,3.036,-256.000,8.663,-395.426,-311.305,37.500,-70.240,-1.220
190,47705.684000,-54.333,2.024,-250.069,11.651,-397.386,-313.324,64.500,-26.240,-1.220
191,47705.701000,-54.333,2.024,-246.116,5.762,-395.398,-313.222,78.500,-2.240,11.780
192,47705.730000,-54.333,2.024,-247.104,14.604,-397.412,-314.361,89.500,-2.240,20.780
193,47705.751000,-55.312,1.012,-241.174,13.589,-391.597,-315.334,90.500,-10.240,20.780
194,47705.769000,-55.312,-1.012,-238.208,10.672,-395.441,-314.294,86.500,-30.240,2.780
195,47705.791000,-59.228,-1.012,-233.266,7.720,-399.287,-311.283,82.500,-20.240,-4.220
196,47705.814000,-60.207,-8.095,-234.255,10.682,-400.280,-312.319,68.500,18.760,-4.220
197,47705.846000,-54.333,-4.047,-235.243,6.767,-396.373,-314.223,52.500,6.760,-23.220
198,47705.863000,-54.333,-3.036,-236.232,9.667,-394.466,-313.292,32.500,-49.240,-33.220
199,47705.876000,-67.059,-4.047,-230.301,15.548,-397.423,-312.409,23.500,0.760,-47.220
200,47705.892000,-77.828,-1.012,-222.394,15.556,-394.518,-314.381,31.500,278.760,-31.220
201,47705.914000,-56.291,-6.071,-214.486,14.601,-387.733,-319.294,38.500,504.760,-3.220
202,47705.931000,-31.816,-3.036,-200.649,10.782,-386.724,-325.135,-7.500,454.760,1.780
203,47705.954000,-21.048,0.000,-176.927,9.968,-387.674,-333.979,-76.500,338.760,15.780
204,47705.971000,-16.153,-1.012,-151.228,11.881,-382.854,-334.019,-122.500,290.760,25.780
205,47705.990000,-17.132,-9.107,-136.402,6.000,-377.962,-335.889,-223.500,212.760,65.780
206,47706.17000,-9.300,-5.059,-118.610,4.017,-376.978,-334.871,-362.500,180.760,114.780
207,47706.39000,-8.321,-4.047,-117.622,-2.754,-377.879,-338.688,-552.500,106.760,153.780
208,47706.71000,-14.195,-3.036,-128.494,-8.713,-373.959,-335.634,-721.500,41.760,149.780
209,47706.85000,-14.195,2.024,-132.448,-17.460,-370.972,-340.405,-863.500,18.760,133.780
210,47706.104000,-21.048,8.095,-142.332,-36.095,-367.902,-339.094,-1017.500,50.760,103.780
211,47706.126000,-16.153,17.202,-159.135,-40.952,-369.791,-339.990,-1142.500,68.760,83.780
212,47706.141000,-20.069,37.439,-167.042,-56.704,-364.814,-336.764,-1248.500,48.760,64.780
213,47706.160000,-19.090,55.652,-175.938,-68.428,-370.514,-334.581,-1295.500,39.760,67.780
214,47706.189000,-4.405,68.806,-186.811,-88.102,-366.470,-330.300,-1370.500,-38.240,80.780
215,47706.211000,-7.342,84.996,-184.834,-97.966,-361.546,-328.162,-1433.500,-149.240,114.780
216,47706.229000,-33.774,100.174,-189.776,-113.700,-360.440,-323.947,-1471.500,-41.240,181.780
217,47706.250000,-17.132,111.304,-181.869,-135.357,-359.284,-316.674,-1475.500,92.760,253.780
218,47706.266000,9.300,125.470,-170.996,-145.203,-358.231,-313.548,-1539.500,-72.240,290.780
219,47706.287000,-17.132,138.625,-180.880,-163.006,-356.146,-303.391,-1599.500,-81.240,337.780
220,47706.307000,-42.585,139.636,-193.730,-172.835,-353.155,-302.236,-1587.500,158.760,364.780
221,47706.326000,-11.258,154.814,-171.985,-196.554,-346.180,-291.980,-1618.500,196.760,373.780
222,47706.371000,19.090,184.158,-175.938,-206.479,-342.227,-285.902,-1700.500,-42.240,376.780
223,47706.385000,-5.384,190.229,-188.788,-226.369,-341.099,-267.832,-1769.500,-305.240,381.780
224,47706.391000,-40.627,191.241,-192.741,-247.108,-338.987,-257.623,-1766.500,-126.240,395.780
225,47706.409000,-17.132,220.585,-199.660,-263.977,-335.946,-245.514,-1782.500,-28.240,383.780
226,47706.427000,2.447,242.846,-206.579,-277.962,-332.933,-230.504,-1785.500,-126.240,390.780
227,47706.449000,-23.006,238.798,-219.429,-288.907,-331.878,-220.467,-1722.500,-128.240,426.780
228,47706.470000,-48.459,224.632,-219.429,-310.765,-322.022,-206.309,-1658.500,94.760,444.780
229,47706.491000,-39.648,250.941,-216.463,-310.948,-319.128,-197.449,-1555.500,192.760,429.780
230,47706.526000,-18.111,269.154,-216.463,-327.905,-308.348,-184.364,-1498.500,179.760,434.780
231,47706.540000,-28.880,249.929,-196.695,-345.813,-304.333,-169.285,-1394.500,50.760,468.780
232,47706.555000,-46.501,257.012,-181.869,-352.818,-302.344,-161.288,-1332.500,20.760,512.780
233,47706.577000,-37.690,278.261,-174.950,-358.016,-291.670,-149.395,-1278.500,201.760,505.780
234,47706.597000,-24.964,276.237,-177.915,-365.949,-287.733,-145.321,-1200.500,400.760,454.780
235,47706.620000,-22.027,258.024,-168.031,-378.888,-278.918,-137.227,-1122.500,477.760,411.780
236,47706.635000,-35.732,257.012,-160.124,-378.075,-274.097,-130.356,-1109.500,587.760,357.780
237,47706.649000,-6.363,263.083,-160.124,-386.078,-266.292,-124.317,-1066.500,743.760,298.780
238,47706.676000,12.237,270.166,-160.124,-392.071,-262.374,-119.293,-1027.500,715.760,212.780
239,47706.701000,17.132,275.225,-151.228,-402.957,-258.412,-114.183,-1002.500,675.760,194.780
240,47706.749000,22.027,267.130,-144.309,-405.123,-250.662,-106.278,-935.500,573.760,220.780
241,47706.749000,40.627,264.095,-135.413,-399.278,-251.685,-104.411,-856.500,375.760,269.780
242,47706.766000,52.375,267.130,-119.598,-407.332,-247.755,-93.444,-773.500,-67.240,300.780
243,47706.781000,33.774,266.119,-111.691,-415.324,-246.725,-84.444,-731.500,-583.240,376.780
244,47706.801000,-1.468,260.047,-118.610,-420.582,-240.894,-66.638,-690.500,-779.240,437.780
245,47706.824000,-12.237,258.024,-128.494,-424.600,-238.928,-61.647,-615.500,-618.240,439.780
246,47706.844000,-11.258,258.024,-138.378,-421.908,-235.097,-49.885,-547.500,-384.240,354.780
247,47706.866000,-14.195,258.024,-145.297,-426.991,-233.128,-39.953,-505.500,-148.240,260.780
248,47706.882000,-13.216,254.988,-150.239,-424.100,-228.317,-40.010,-469.500,-53.240,207.780
249,47706.909000,-2.447,260.047,-156.170,-420.315,-231.264,-31.213,-380.500,-1.240,89.780
250,47706.926000,-28.880,262.071,-173.961,-427.174,-228.298,-32.080,-254.500,-35.240,-9.220
251,47706.949000,-47.480,261.059,-189.776,-424.194,-231.226,-33.114,-94.500,296.760,-126.220
252,47706.966000,-15.174,266.119,-205.591,-423.172,-232.201,-35.100,89.500,736.760,-282.220
253,47706.975000,2.447,275.225,-203.614,-418.002,-236.101,-48.969,304.500,946.760,-371.220
254,47706.994000,27.901,275.225,-199.660,-416.773,-235.128,-63.759,521.500,931.760,-359.220
255,47707.21000,52.375,283.320,-208.556,-416.651,-237.057,-69.665,683.500,546.760,-323.220
256,47707.46000,41.606,285.344,-225.359,-414.390,-243.833,-83.480,857.500,144.760,-302.220
257,47707.64000,34.753,290.403,-228.324,-406.396,-248.734,-90.506,956.500,35.760,-292.220
258,47707.91000,29.859,302.545,-237.220,-403.202,-246.811,-106.316,1165.500,-73.240,-256.220
259,47707.106000,19.090,319.747,-248.093,-397.157,-250.726,-114.294,1393.500,-67.240,-215.220
260,47707.129000,24.964,326.830,-238.208,-387.943,-255.622,-135.125,1634.500,-74.240,-157.220
261,47707.144000,23.985,332.901,-233.266,-385.777,-259.500,-145.004,1818.500,-177.240,-130.220
262,47707.170000,28.880,346.055,-230.301,-375.612,-257.632,-167.828,1991.500,-305.240,-130.220
263,47707.203000,12.237,333.913,-227.336,-362.405,-265.463,-191.679,2148.500,-350.240,-131.220
264,47707.216000,-3.426,324.806,-229.313,-348.490,-266.544,-203.738,2255.500,-195.240,-159.220
265,47707.244000,7.342,332.901,-229.313,-334.235,-274.380,-231.546,2306.500,-115.240,-158.220
266,47707.252000,10.279,319.747,-224.371,-321.324,-276.421,-241.616,2424.500,-65.240,-159.220
267,47707.275000,9.300,301.534,-217.452,-297.345,-283.382,-266.644,2494.500,-144.240,-158.220
268,47707.295000,8.321,297.486,-217.452,-285.430,-283.479,-276.699,2523.500,-246.240,-186.220
269,47707.326000,-3.426,286.356,-206.579,-262.439,-291.399,-300.723,2551.500,-253.240,-210.220
270,47707.344000,-2.447,276.237,-199.660,-226.839,-298.474,-319.065,2562.500,-230.240,-230.220
271,47707.376000,16.153,274.213,-197.683,-213.971,-301.485,-326.180,2553.500,-301.240,-245.220
272,47707.380000,10.279,256.000,-206.579,-178.423,-310.498,-340.581,2545.500,-318.240,-248.220
273,47707.401000,5.384,232.727,-207.568,-167.502,-316.395,-346.674,2535.500,-313.240,-265.220
274,47707.419000,15.174,212.490,-210.533,-129.201,-322.541,-352.267,2530.500,-359.240,-282.220
275,47707.441000,15.174,194.277,-202.625,-114.401,-330.411,-355.473,2496.500,-501.240,-302.220
276,47707.464000,6.363,176.063,-201.637,-81.978,-341.344,-358.003,2454.500,-593.240,-298.220
277,47707.481000,8.321,155.826,-198.672,-44.863,-347.493,-351.761,2443.500,-604.240,-290.220
278,47707.502000,6.363,131.542,-188.788,-24.252,-358.324,-350.144,2395.500,-652.240,-273.220
279,47707.524000,-14.195,108.269,-185.822,12.855,-367.377,-341.930,2336.500,-623.240,-262.220
280,47707.541000,-13.216,88.032,-181.869,19.697,-372.279,-339.092,2276.500,-539.240,-251.220
281,47707.574000,-11.258,75.889,-174.950,48.907,-379.330,-327.787,2201.500,-481.240,-250.220
282,47707.602000,-17.132,57.676,-168.031,70.391,-382.432,-324.225,2125.500,-373.240,-255.220
283,47707.609000,-15.174,35.415,-162.100,94.648,-390.409,-308.894,2071.500,-344.240,-255.220
284,47707.626000,-15.174,18.213,-161.112,103.352,-398.238,-299.194,1984.500,-329.240,-247.220
285,47707.652000,-15.174,-1.012,-152.216,127.694,-400.403,-291.747,1877.500,-383.240,-246.220
286,47707.675000,-19.090,-21.249,-150.239,153.847,-407.434,-273.497,1773.500,-437.240,-260.220
287,47707.691000,-17.132,-38.451,-145.297,158.662,-410.386,-267.672,1674.500,-500.240,-265.220
288,47707.714000,-17.132,-50.593,-143.320,177.947,-411.548,-251.276,1581.500,-586.240,-284.220
289,47707.732000,-29.859,-64.759,-140.355,195.441,-419.458,-240.747,1503.500,-533.240,-292.220
290,47707.749000,-32.795,-77.913,-131.459,210.803,-421.553,-223.296,1418.500,-473.240,-276.220
291,47707.770000,-28.880,-92.079,-128.494,207.781,-423.467,-217.334,1323.500,-491.240,-277.220
292,47707.790000,-51.396,-119.399,-121.575,224.071,-429.445,-194.973,1282.500,-487.240,-273.220
293,47707.812000,-48.459,-122.435,-110.703,239.511,-430.567,-182.447,1205.500,-320.240,-261.220
294,47707.832000,-35.732,-132.553,-101.807,246.300,-431.601,-178.628,1130.500,-138.240,-252.220
295,47707.849000,-35.732,-144.696,-103.784,256.838,-429.776,-167.003,1038.500,-147.240,-240.220
296,47707.872000,-34.753,-159.874,-100.819,258.692,-431.735,-160.142,941.500,-213.240,-217.220
297,47707.920000,-40.627,-159.874,-90.934,272.200,-431.870,-149.552,839.500,-275.240,-205.220
298,47707.934000,-49.438,-164.933,-90.934,271.092,-430.901,-142.642,742.500,-292.240,-189.220
299,47707.940000,-50.417,-180.111,-90.934,278.678,-430.986,-128.994,663.500,-270.240,-166.220
300,47707.957000,-53.354,-184.158,-83.027,284.384,-430.080,-120.236,569.500,-250.240,-163.220
301,47707.971000,-56.291,-185.170,-79.073,290.360,-435.935,-123.288,523.500,-227.240,-161.220
302,47708.4000,-57.270,-192.253,-76.108,297.027,-433.104,-114.549,431.500,-171.240,-151.220
303,47708.8000,-59.228,-195.289,-66.224,302.882,-438.966,-110.708,332.500,-92.240,-157.220
304,47708.31000,-56.291,-197.312,-59.305,292.057,-432.096,-110.525,224.500,7.760,-161.220
305,47708.56000,-49.438,-198.324,-50.409,298.863,-431.193,-108.677,109.500,78.760,-158.220
306,47708.79000,-50.417,-196.300,-40.525,300.810,-426.372,-110.686,-14.500,163.760,-161.220
307,47708.101000,-47.480,-192.253,-37.560,303.874,-423.488,-119.604,-141.500,312.760,-146.220
308,47708.119000,-31.816,-198.324,-30.641,308.784,-423.531,-120.675,-282.500,461.760,-116.220
309,47708.141000,-10.279,-194.277,-32.618,307.043,-422.533,-133.444,-445.500,477.760,-64.220
310,47708.169000,-2.447,-191.241,-41.514,306.202,-420.581,-142.291,-525.500,383.760,-28.220
311,47708.193000,-5.384,-188.206,-51.398,293.602,-416.587,-150.933,-668.500,256.760,36.780
312,47708.206000,-8.321,-176.063,-59.305,299.542,-416.636,-154.976,-802.500,156.760,96.780
313,47708.229000,-11.258,-162.909,-60.293,285.098,-415.522,-168.504,-934.500,89.760,115.780
314,47708.249000,-15.174,-152.791,-78.085,278.344,-416.422,-173.306,-1068.500,23.760,118.780
315,47708.262000,-25.943,-140.648,-94.888,270.732,-413.435,-186.957,-1179.500,83.760,128.780
316,47708.280000,-27.901,-126.482,-112.680,259.233,-415.250,-199.549,-1280.500,264.760,164.780
317,47708.294000,-7.342,-119.399,-118.610,247.628,-411.264,-209.193,-1353.500,283.760,162.780
318,47708.326000,-12.237,-110.292,-119.598,236.075,-405.339,-222.778,-1406.500,220.760,172.780
319,47708.344000,-36.711,-100.174,-137.390,233.382,-407.235,-235.526,-1519.500,240.760,185.780
320,47708.373000,-25.943,-80.949,-145.297,215.032,-401.245,-251.944,-1595.500,499.760,197.780
321,47708.386000,-0.489,-65.771,-165.066,205.446,-400.177,-263.589,-1667.500,475.760,204.780
322,47708.409000,-14.195,-60.711,-185.822,186.117,-398.049,-278.016,-1748.500,318.760,197.780
323,47708.426000,-27.901,-52.617,-191.753,159.990,-388.113,-299.224,-1775.500,452.760,206.780
324,47708.457000,-16.153,-32.379,-197.683,153.235,-385.142,-305.999,-1834.500,480.760,199.780
325,47708.495000,3.426,-12.142,-223.382,131.914,-379.127,-320.396,-1835.500,296.760,182.780
326,47708.495000,-10.279,-2.024,-237.220,117.289,-378.991,-323.090,-1807.500,209.760,209.780
327,47708.504000,-33.774,2.024,-248.093,91.093,-372.931,-338.385,-1794.500,282.760,241.780
328,47708.531000,-14.195,15.178,-252.046,75.461,-364.076,-344.026,-1730.500,535.760,273.780
329,47708.549000,9.300,27.320,-243.151,49.161,-358.021,-353.412,-1695.500,513.760,281.780
330,47708.566000,-13.216,31.368,-248.093,31.642,-351.081,-361.970,-1666.500,428.760,294.780
331,47708.595000,-23.006,30.356,-249.081,15.041,-347.056,-365.619,-1642.500,633.760,306.780
332,47708.609000,4.405,41.486,-249.081,-5.450,-336.219,-374.129,-1617.500,716.760,277.780
333,47708.627000,11.258,59.700,-242.162,-25.974,-329.255,-378.697,-1621.500,591.760,264.780
334,47708.649000,3.426,68.806,-241.174,-51.408,-322.248,-382.193,-1625.500,526.760,253.780
335,47708.675000,4.405,78.925,-230.301,-61.168,-317.318,-385.964,-1664.500,479.760,231.780
336,47708.697000,10.279,94.103,-241.174,-89.642,-306.419,-385.473,-1681.500,434.760,210.780
337,47708.724000,21.048,105.233,-238.208,-98.491,-307.309,-382.362,-1679.500,276.760,161.780
338,47708.739000,4.405,125.470,-230.301,-121.110,-302.271,-378.029,-1706.500,154.760,132.780
339,47708.761000,-15.174,144.696,-225.359,-140.908,-292.427,-369.815,-1706.500,333.760,149.780
340,47708.781000,7.342,156.838,-220.417,-156.556,-289.381,-371.511,-1693.500,340.760,144.780
341,47708.801000,6.363,158.862,-238.208,-178.299,-286.294,-360.301,-1688.500,248.760,136.780
342,47708.821000,-12.237,177.075,-222.394,-193.092,-275.520,-359.067,-1685.500,487.760,182.780
343,47708.844000,-3.426,205.407,-227.336,-211.841,-265.680,-354.809,-1633.500,741.760,240.780
344,47708.861000,50.417,219.573,-222.394,-229.515,-264.556,-351.544,-1614.500,435.760,271.780
345,47708.881000,45.522,194.277,-205.591,-243.483,-259.607,-338.505,-1632.500,192.760,261.780
346,47708.902000,6.363,175.051,-195.707,-267.305,-256.509,-320.367,-1694.500,-32.240,155.780
347,47708.934000,36.711,208.443,-212.510,-279.203,-254.475,-312.283,-1733.500,-227.240,31.780
348,47708.962000,55.312,227.668,-221.405,-296.114,-258.211,-294.260,-1692.500,-465.240,-23.220
349,47708.969000,15.174,215.526,-210.533,-299.265,-259.164,-281.405,-1637.500,-378.240,24.780
350,47708.987000,-18.111,206.419,-188.788,-315.233,-259.039,-263.402,-1617.500,-83.240,54.780
351,47709.2000,18.111,236.775,-186.811,-323.199,-258.976,-255.386,-1599.500,-128.240,41.780
352,47709.25000,44.543,265.107,-199.660,-333.312,-262.777,-234.529,-1576.500,-423.240,21.780
353,47709.51000,-8.321,253.976,-180.880,-358.094,-263.541,-215.385,-1524.500,-473.240,82.780
354,47709.69000,-7.342,232.727,-167.042,-363.229,-259.638,-203.485,-1473.500,-335.240,128.780
355,47709.86000,24.964,249.929,-163.089,-370.356,-259.592,-187.608,-1400.500,-114.240,179.780
356,47709.106000,3.426,264.095,-160.124,-373.533,-259.579,-173.769,-1404.500,-305.240,163.780
357,47709.129000,-25.943,274.213,-147.274,-383.612,-259.506,-156.855,-1380.500,-266.240,156.780
358,47709.161000,-18.111,270.166,-156.170,-376.911,-256.673,-150.086,-1321.500,78.760,207.780
359,47709.176000,13.216,267.130,-170.008,-398.725,-249.718,-136.910,-1250.500,59.760,233.780
360,47709.199000,-19.090,271.178,-180.880,-396.136,-245.893,-119.240,-1218.500,-171.240,180.780
361,47709.216000,-6.363,270.166,-172.973,-406.060,-245.812,-111.189,-1103.500,67.760,129.780
362,47709.234000,16.153,272.190,-178.903,-408.198,-246.772,-100.321,-981.500,171.760,5.780
363,47709.254000,6.363,266.119,-181.869,-412.181,-246.740,-96.313,-920.500,258.760,-43.220
364,47709.271000,7.342,267.130,-171.985,-415.247,-243.817,-90.356,-797.500,429.760,-94.220
365,47709.299000,32.795,272.190,-162.100,-414.382,-240.929,-85.452,-678.500,608.760,-81.220
366,47709.302000,65.101,264.095,-157.158,-415.447,-238.989,-81.498,-530.500,521.760,-24.220
367,47709.330000,57.270,254.988,-158.147,-414.407,-243.834,-82.495,-401.500,171.760,9.780
368,47709.367000,31.816,247.905,-157.158,-415.482,-238.991,-79.528,-290.500,4.760,30.780
369,47709.394000,31.816,246.893,-156.170,-411.681,-238.065,-73.690,-172.500,74.760,34.780
370,47709.407000,31.816,244.870,-161.112,-419.483,-237.024,-75.522,-50.500,101.760,1.780
371,47709.420000,20.069,247.905,-174.950,-421.414,-237.973,-76.471,5.500,101.760,-15.220
372,47709.442000,10.279,249.929,-186.811,-413.507,-240.943,-79.561,123.500,166.760,-61.220
373,47709.457000,23.985,259.036,-208.556,-412.451,-239.980,-84.503,285.500,201.760,-106.220
374,47709.486000,22.027,267.130,-224.371,-417.248,-240.898,-89.339,461.500,9.760,-168.220
375,47709.504000,0.489,271.178,-243.151,-406.301,-247.761,-96.416,659.500,-112.240,-223.220
376,47709.526000,1.468,298.498,-254.023,-403.123,-249.710,-109.268,854.500,-57.240,-314.220
377,47709.544000,1.468,321.771,-279.722,-403.002,-249.703,-116.161,1083.500,34.760,-384.220
378,47709.566000,2.447,332.901,-298.502,-394.836,-254.595,-133.036,1382.500,223.760,-385.220
379,47709.586000,23.006,346.055,-295.537,-385.751,-258.531,-146.974,1690.500,239.760,-297.220
380,47709.604000,29.859,358.198,-280.710,-371.593,-261.533,-171.832,1838.500,148.760,-237.220
381,47709.622000,19.090,368.316,-268.849,-369.393,-263.473,-184.667,2118.500,-38.240,-110.220
382,47709.660000,5.384,363.257,-261.931,-353.244,-264.555,-212.516,2390.500,-80.240,-17.220
383,47709.669000,13.216,362.245,-250.069,-336.073,-266.612,-242.351,2603.500,-40.240,35.780
384,47709.691000,21.048,353.138,-229.313,-315.238,-269.687,-257.483,2752.500,-148.240,68.780
385,47709.706000,6.363,335.937,-212.510,-299.088,-274.641,-283.359,2842.500,-246.240,83.780
386,47709.731000,8.321,320.759,-186.811,-275.379,-276.777,-295.589,2877.500,-301.240,102.780
387,47709.744000,17.132,302.545,-170.996,-248.526,-282.801,-317.715,2840.500,-324.240,120.780
388,47709.770000,30.837,285.344,-158.147,-237.615,-281.922,-326.769,2770.500,-447.240,64.780
389,47709.796000,25.943,260.047,-157.158,-207.869,-292.814,-344.019,2726.500,-504.240,17.780
390,47709.814000,16.153,236.775,-162.100,-187.171,-301.704,-348.312,2627.500,-584.240,-96.220
391,47709.830000,9.300,212.490,-168.031,-150.749,-308.796,-357.808,2506.500,-547.240,-204.220
392,47709.851000,14.195,188.206,-167.042,-117.252,-320.700,-365.278,2388.500,-442.240,-266.220
393,47709.872000,16.153,163.921,-173.961,-103.579,-323.730,-362.563,2266.500,-437.240,-318.220
394,47709.890000,10.279,146.719,-174.950,-74.022,-336.568,-367.993,2171.500,-393.240,-353.220
395,47709.917000,12.237,130.530,-170.996,-60.384,-335.728,-365.282,2097.500,-368.240,-356.220
396,47709.932000,11.258,105.233,-176.927,-25.069,-343.787,-366.882,2026.500,-413.240,-353.220
397,47709.960000,12.237,88.032,-176.927,-4.519,-353.653,-362.312,1948.500,-452.240,-334.220
398,47709.980000,4.405,73.866,-178.903,21.902,-359.700,-359.819,1910.500,-512.240,-315.220
399,47709.995000,5.384,60.711,-171.985,48.150,-365.758,-347.478,1847.500,-468.240,-288.220
400,47710.13000,2.447,40.474,-177.915,55.918,-370.672,-341.703,1775.500,-541.240,-280.220
401,47710.39000,-11.258,23.273,-181.869,77.317,-377.650,-331.245,1717.500,-535.240,-277.220
402,47710.61000,-16.153,7.083,-174.950,96.793,-380.737,-324.695,1656.500,-467.240,-252.220
403,47710.76000,-18.111,-6.071,-175.938,118.191,-387.715,-314.236,1587.500,-388.240,-224.220
404,47710.109000,-18.111,-16.190,-176.927,121.102,-392.583,-310.344,1532.500,-364.240,-200.220
405,47710.131000,-23.006,-29.344,-169.019,147.271,-395.741,-295.052,1477.500,-296.240,-180.220
406,47710.150000,-31.816,-44.522,-156.170,156.893,-400.679,-283.403,1410.500,-232.240,-148.220
407,47710.156000,-30.837,-59.700,-155.181,174.402,-398.909,-278.793,1368.500,-124.240,-132.220
408,47710.181000,-25.943,-70.830,-162.100,182.057,-398.990,-269.083,1296.500,-96.240,-113.220
409,47710.203000,-24.964,-78.925,-152.216,197.635,-402.040,-263.449,1222.500,-83.240,-100.220
410,47710.219000,-32.795,-86.008,-141.344,203.334,-404.039,-252.718,1139.500,-35.240,-79.220
411,47710.245000,-29.859,-98.150,-143.320,211.180,-406.045,-252.855,1058.500,-25.240,-58.220
412,47710.262000,-9.300,-105.233,-135.413,215.830,-406.103,-239.155,978.500,-183.240,-36.220
413,47710.271000,-42.585,-125.470,-135.413,223.615,-407.145,-236.338,899.500,-318.240,-11.220
414,47710.290000,-37.690,-136.601,-128.494,225.400,-412.980,-223.565,824.500,-268.240,4.780
415,47710.322000,-34.753,-143.684,-126.517,238.026,-416.004,-216.893,776.500,-267.240,7.780
416,47710.340000,-45.522,-157.850,-139.367,238.867,-417.957,-208.046,676.500,-371.240,-9.220
417,47710.365000,-57.270,-155.826,-136.402,247.562,-424.818,-198.347,581.500,-471.240,-42.220
418,47710.387000,-68.038,-158.862,-142.332,240.565,-421.861,-191.336,501.500,-424.240,-79.220
419,47710.410000,-60.207,-157.850,-142.332,251.278,-425.833,-186.598,435.500,-296.240,-114.220
420,47710.430000,-60.207,-162.909,-141.344,253.174,-426.822,-182.693,376.500,-224.240,-147.220
421,47710.451000,-55.312,-159.874,-137.390,261.833,-425.943,-174.971,319.500,-178.240,-168.220
422,47710.467000,-56.291,-164.933,-137.390,261.756,-426.915,-170.047,270.500,-174.240,-165.220
423,47710.505000,-57.270,-168.980,-132.448,271.524,-428.941,-168.248,221.500,-107.240,-153.220
424,47710.526000,-51.396,-168.980,-128.494,268.537,-428.917,-165.242,195.500,-74.240,-142.220
425,47710.547000,-46.501,-166.957,-126.517,266.561,-425.029,-166.196,134.500,-49.240,-125.220
426,47710.550000,-51.396,-172.016,-133.436,277.273,-425.129,-163.432,71.500,-62.240,-104.220
427,47710.579000,-48.459,-171.004,-127.506,275.282,-427.049,-160.441,11.500,-9.240,-85.220
428,47710.607000,-50.417,-167.968,-125.529,277.315,-422.223,-167.374,-45.500,75.760,-81.220
429,47710.611000,-43.564,-166.957,-125.529,271.461,-420.233,-169.242,-90.500,160.760,-71.220
430,47710.624000,-40.627,-167.968,-120.587,267.617,-424.065,-171.138,-138.500,190.760,-51.220
431,47710.646000,-36.711,-172.016,-121.575,267.659,-419.223,-176.067,-202.500,241.760,-29.220
432,47710.674000,-27.901,-173.028,-120.587,270.646,-417.311,-180.060,-278.500,230.760,3.780
433,47710.696000,-29.859,-172.016,-117.622,265.858,-417.261,-185.882,-322.500,206.760,15.780
434,47710.717000,-38.669,-164.933,-112.680,274.768,-419.271,-190.959,-403.500,228.760,27.780
435,47710.735000,-34.753,-159.874,-111.691,267.987,-415.333,-196.751,-482.500,349.760,40.780
436,47710.754000,-24.964,-155.826,-123.552,262.228,-412.370,-204.528,-576.500,385.760,50.780
437,47710.777000,-22.027,-143.684,-121.575,250.666,-405.478,-218.114,-656.500,362.760,43.780
438,47710.800000,-32.795,-137.613,-119.598,247.842,-402.541,-225.943,-734.500,410.760,67.780
439,47710.822000,-23.985,-132.553,-116.633,246.101,-401.543,-238.711,-817.500,506.760,96.780
440,47710.850000,-15.174,-130.530,-121.575,235.509,-393.692,-252.315,-906.500,466.760,113.780
441,47710.865000,-11.258,-122.435,-135.413,225.863,-397.467,-258.047,-984.500,406.760,116.780
442,47710.882000,-17.132,-108.269,-148.263,212.258,-390.562,-266.674,-1007.500,247.760,116.780
443,47710.910000,-32.795,-99.162,-151.228,208.456,-389.552,-273.499,-1046.500,215.760,148.780
444,47710.926000,-38.669,-100.174,-166.054,193.925,-384.571,-284.077,-1088.500,317.760,182.780
445,47710.955000,-28.880,-96.126,-185.822,183.395,-385.428,-296.688,-1110.500,288.760,206.780
446,47710.970000,-23.985,-82.972,-196.695,179.506,-382.487,-299.576,-1100.500,155.760,186.780
447,47710.984000,-32.795,-72.854,-193.730,163.970,-376.530,-309.152,-1132.500,130.760,173.780
448,47711.7000,-28.880,-63.747,-190.764,148.409,-373.479,-315.772,-1166.500,322.760,196.780
449,47711.32000,-7.342,-53.628,-187.799,129.029,-371.355,-327.245,-1240.500,309.760,216.780
450,47711.55000,-12.237,-51.605,-204.602,126.101,-370.360,-328.179,-1271.500,212.760,184.780
451,47711.69000,-23.985,-40.474,-210.533,103.777,-367.241,-339.601,-1292.500,167.760,172.780
452,47711.91000,-11.258,-17.202,-196.695,95.013,-364.255,-343.387,-1304.500,294.760,193.780
453,47711.102000,6.363,-4.047,-190.764,84.344,-359.312,-351.080,-1372.500,319.760,221.780
454,47711.136000,6.363,-4.047,-212.510,62.911,-356.207,-357.595,-1459.500,140.760,208.780
455,47711.145000,-12.237,0.000,-220.417,41.358,-353.109,-357.217,-1490.500,64.760,188.780
456,47711.167000,-10.279,19.225,-212.510,18.938,-349.028,-363.717,-1528.500,195.760,207.780
457,47711.190000,7.342,41.486,-221.405,14.989,-348.995,-361.678,-1604.500,126.760,179.780
458,47711.212000,9.300,54.640,-231.290,-10.409,-345.857,-365.170,-1660.500,-26.240,148.780
459,47711.250000,-16.153,62.735,-233.266,-29.035,-345.690,-362.872,-1677.500,-26.240,148.780
460,47711.269000,-27.901,65.771,-241.174,-47.627,-343.585,-363.530,-1720.500,114.760,138.780
461,47711.269000,-9.300,76.901,-249.081,-74.186,-335.610,-359.132,-1716.500,168.760,90.780
462,47711.282000,-3.426,105.233,-248.093,-85.963,-333.569,-357.941,-1752.500,85.760,33.780
463,47711.310000,-26.922,124.459,-254.023,-108.505,-327.559,-358.534,-1747.500,178.760,-2.220
464,47711.330000,-36.711,124.459,-257.977,-118.377,-325.539,-354.424,-1750.500,360.760,-52.220
465,47711.352000,-5.384,132.553,-249.081,-134.189,-321.534,-347.257,-1791.500,284.760,-125.220
466,47711.381000,6.363,155.826,-244.139,-153.838,-316.521,-344.947,-1826.500,88.760,-173.220
467,47711.395000,-15.174,156.838,-253.035,-169.580,-318.319,-338.759,-1755.500,188.760,-142.220
468,47711.415000,-15.174,159.874,-244.139,-189.359,-310.410,-330.543,-1717.500,267.760,-134.220
469,47711.432000,0.489,179.099,-234.255,-195.274,-307.455,-329.457,-1666.500,338.760,-69.220
470,47711.459000,17.132,191.241,-239.197,-217.997,-304.359,-318.230,-1610.500,140.760,6.780
471,47711.481000,-1.468,176.063,-231.290,-226.855,-306.218,-314.133,-1533.500,-18.240,103.780
472,47711.514000,-22.027,169.992,-217.452,-241.792,-302.228,-301.076,-1512.500,39.760,117.780
473,47711.537000,6.363,202.372,-221.405,-253.639,-300.191,-295.946,-1488.500,-106.240,90.780
474,47711.555000,19.090,215.526,-219.429,-268.629,-294.268,-280.921,-1415.500,-238.240,106.780
475,47711.561000,-39.648,191.241,-191.753,-270.636,-301.996,-273.986,-1320.500,42.760,204.780
476,47711.583000,9.300,226.656,-185.822,-284.570,-297.045,-262.916,-1341.500,290.760,202.780
477,47711.590000,31.816,249.929,-190.764,-298.521,-290.159,-251.848,-1373.500,186.760,146.780
478,47711.622000,-14.195,224.632,-196.695,-300.642,-293.054,-240.978,-1440.500,-147.240,48.780
479,47711.645000,-28.880,210.466,-195.707,-317.518,-292.917,-226.897,-1479.500,-118.240,0.780
480,47711.662000,10.279,236.775,-195.707,-326.551,-287.042,-216.900,-1492.500,34.760,-54.220
481,47711.679000,23.985,246.893,-199.660,-336.603,-291.808,-198.996,-1443.500,-177.240,-84.220
482,47711.707000,13.216,246.893,-184.834,-339.685,-294.693,-189.094,-1307.500,-389.240,-22.220
483,47711.724000,-0.489,254.988,-159.135,-345.781,-294.652,-176.188,-1167.500,-358.240,142.780
484,47711.745000,-14.195,256.000,-147.274,-353.860,-291.692,-163.251,-1056.500,-144.240,335.780
485,47711.767000,-4.405,254.988,-138.378,-363.811,-286.772,-156.189,-967.500,-24.240,422.780
486,47711.790000,-9.300,249.929,-136.402,-371.891,-281.876,-144.239,-947.500,-39.240,426.780
487,47711.807000,-18.111,248.917,-136.402,-373.043,-278.005,-136.347,-933.500,-17.240,419.780
488,47711.830000,-6.363,257.012,-131.459,-384.024,-273.080,-126.314,-896.500,106.760,426.780
489,47711.847000,6.363,269.154,-122.564,-386.121,-267.263,-121.362,-852.500,106.760,438.780
490,47711.870000,-3.426,273.202,-118.610,-393.161,-265.275,-111.395,-824.500,10.760,442.780
491,47711.890000,-9.300,264.095,-129.483,-399.224,-259.425,-103.419,-781.500,-95.240,401.780
492,47711.907000,5.384,259.036,-138.378,-404.282,-256.486,-95.457,-731.500,-220.240,328.780
493,47711.921000,-9.300,258.024,-150.239,-408.499,-253.564,-79.635,-678.500,-332.240,241.780
494,47711.940000,-25.943,260.047,-163.089,-403.606,-257.480,-77.748,-581.500,-304.240,180.780
495,47711.972000,-30.837,254.988,-172.973,-411.600,-250.643,-71.707,-516.500,-102.240,156.780
496,47711.981000,-30.837,252.964,-187.799,-414.552,-250.617,-70.671,-402.500,109.760,73.780
497,47712.24000,-30.837,250.941,-199.660,-414.579,-249.651,-69.687,-258.500,286.760,-8.220
498,47712.42000,-18.111,252.964,-203.614,-407.677,-251.646,-71.776,-106.500,414.760,-116.220
499,47712.56000,-12.237,256.000,-219.429,-411.512,-254.510,-74.658,52.500,492.760,-193.220
500,47712.77000,2.447,262.071,-227.336,-404.524,-254.564,-82.657,251.500,592.760,-193.220
501,47712.97000,34.753,274.213,-223.382,-396.601,-253.662,-88.705,493.500,424.760,-129.220
502,47712.120000,37.690,275.225,-218.440,-404.212,-256.483,-99.396,694.500,111.760,-108.220
503,47712.137000,22.027,280.285,-225.359,-408.084,-251.605,-104.256,781.500,23.760,-116.220
504,47712.160000,18.111,283.320,-232.278,-398.013,-254.582,-119.197,988.500,33.760,-95.220
505,47712.177000,22.027,290.403,-242.162,-392.991,-255.587,-126.176,1186.500,101.760,-109.220
506,47712.195000,17.132,299.510,-256.000,-384.834,-255.639,-145.025,1378.500,178.760,-131.220
507,47712.222000,22.027,297.486,-248.093,-376.547,-256.653,-170.766,1560.500,206.760,-151.220
508,47712.237000,26.922,300.522,-239.197,-372.442,-262.485,-178.707,1733.500,100.760,-148.220
509,47712.264000,24.964,310.640,-235.243,-359.358,-260.644,-200.599,1880.500,10.760,-122.220
510,47712.269000,23.985,314.688,-230.301,-351.261,-265.540,-213.535,2026.500,-23.240,-63.220
511,47712.302000,23.006,313.676,-224.371,-331.294,-263.759,-237.517,2150.500,-47.240,-13.220
512,47712.324000,18.111,304.569,-214.486,-321.257,-268.674,-249.502,2202.500,-53.240,5.780
513,47712.346000,14.195,298.498,-202.625,-301.253,-272.699,-272.494,2256.500,-23.240,27.780
514,47712.362000,23.006,291.415,-199.660,-277.424,-270.957,-293.591,2298.500,-29.240,60.780
515,47712.382000,22.027,266.119,-200.649,-263.499,-274.941,-304.661,2326.500,-145.240,80.780
516,47712.405000,11.258,254.988,-198.672,-248.501,-277.960,-321.659,2296.500,-193.240,56.780
517,47712.431000,12.237,243.858,-196.695,-232.646,-279.059,-332.767,2278.500,-156.240,35.780
518,47712.450000,16.153,221.597,-187.799,-206.945,-281.211,-347.002,2249.500,-158.240,21.780
519,47712.459000,18.111,202.372,-184.834,-189.166,-288.137,-353.215,2192.500,-231.240,-14.220
520,47712.501000,16.153,189.217,-186.811,-164.434,-293.184,-366.445,2139.500,-284.240,-39.220
521,47712.529000,8.321,174.040,-178.903,-156.572,-293.253,-368.552,2106.500,-247.240,-39.220
522,47712.537000,7.342,152.791,-184.834,-124.107,-299.345,-376.011,2056.500,-170.240,-29.220
523,47712.556000,10.279,140.648,-186.811,-100.432,-303.419,-385.285,1978.500,-70.240,14.780
524,47712.570000,9.300,120.411,-173.961,-83.754,-306.471,-386.561,1887.500,-26.240,36.780
525,47712.596000,6.363,101.186,-164.077,-62.131,-309.565,-390.878,1793.500,11.760,3.780
526,47712.614000,20.069,91.067,-165.066,-48.459,-306.788,-391.123,1738.500,-110.240,-20.220
527,47712.641000,17.132,67.794,-170.008,-17.006,-318.679,-393.634,1658.500,-250.240,-51.220
528,47712.661000,12.237,48.569,-180.880,-12.218,-316.794,-388.799,1539.500,-329.240,-60.220
529,47712.674000,15.174,40.474,-184.834,4.488,-322.749,-390.072,1440.500,-424.240,-82.220
530,47712.696000,5.384,32.379,-190.764,34.745,-331.740,-381.737,1404.500,-444.240,-97.220
531,47712.724000,-3.426,15.178,-185.822,37.664,-335.639,-378.831,1349.500,-377.240,-119.220
532,47712.737000,1.468,0.000,-195.707,59.149,-340.677,-374.283,1285.500,-369.240,-146.220
533,47712.780000,0.489,-5.059,-202.625,63.004,-345.555,-368.438,1226.500,-408.240,-172.220
534,47712.799000,-3.426,-11.130,-207.568,80.506,-354.433,-357.909,1178.500,-440.240,-184.220
535,47712.801000,6.363,-37.439,-206.579,95.150,-358.440,-354.225,1143.500,-500.240,-181.220
536,47712.820000,4.405,-41.486,-212.510,110.626,-365.367,-340.709,1097.500,-649.240,-187.220
537,47712.837000,-27.901,-44.522,-211.521,122.223,-372.258,-329.092,1073.500,-767.240,-204.220
538,47712.860000,-58.249,-55.652,-215.475,135.845,-379.162,-321.450,1084.500,-569.240,-203.220
539,47712.881000,-40.627,-61.723,-218.440,154.317,-383.209,-312.911,1089.500,-376.240,-202.220
540,47712.902000,-13.216,-67.794,-218.440,156.240,-387.101,-309.003,1092.500,-197.240,-196.220
541,47712.934000,-20.069,-73.866,-210.533,166.726,-385.278,-294.424,1072.500,-337.240,-196.220
542,47712.942000,-30.837,-78.925,-202.625,179.413,-389.268,-290.706,1049.500,-438.240,-186.220
543,47712.964000,-28.880,-83.984,-196.695,188.022,-394.198,-277.070,1030.500,-414.240,-178.220
544,47712.985000,-24.964,-91.067,-188.788,200.151,-400.802,-518.468,1008.500,-401.240,-168.220
545,47713.2000,-23.006,-99.162,-175.938,207.273,-399.234,-256.731,983.500,-395.240,-150.220
546,47713.25000,-23.006,-105.233,-165.066,220.878,-408.075,-247.117,951.500,-353.240,-110.220
547,47713.47000,-24.964,-113.328,-152.216,219.762,-408.074,-239.222,894.500,-303.240,-63.220
548,47713.69000,-23.006,-116.364,-134.425,228.439,-411.065,-230.512,867.500,-275.240,-39.220
549,47713.97000,-31.816,-128.506,-139.367,234.215,-410.156,-225.693,797.500,-286.240,-3.220
550,47713.111000,-44.543,-138.625,-134.425,246.728,-414.154,-212.127,729.500,-269.240,14.780
551,47713.139000,-49.438,-147.731,-132.448,241.819,-414.111,-211.056,639.500,-157.240,25.780
552,47713.154000,-40.627,-149.755,-132.448,244.739,-421.882,-206.176,551.500,-89.240,11.780
553,47713.167000,-41.606,-155.826,-125.529,251.484,-420.014,-201.375,467.500,-148.240,-23.220
554,47713.185000,-51.396,-160.885,-120.587,253.293,-417.137,-194.520,384.500,-188.240,-61.220
555,47713.207000,-48.459,-165.945,-123.552,260.171,-425.908,-191.678,305.500,-136.240,-71.220
556,47713.225000,-49.438,-171.004,-126.517,261.079,-422.050,-189.729,217.500,-120.240,-56.220
557,47713.239000,-51.396,-167.968,-127.506,259.113,-423.000,-188.709,179.500,-68.240,-48.220
558,47713.270000,-51.396,-161.897,-116.633,257.043,-420.085,-183.754,112.500,10.760,-30.220
559,47713.286000,-52.375,-164.933,-115.645,256.169,-422.006,-188.658,38.500,66.760,-20.220
560,47713.314000,-39.648,-167.968,-110.703,257.130,-422.016,-187.691,-32.500,106.760,-19.220
561,47713.334000,-33.774,-165.945,-105.761,259.061,-419.132,-187.728,-134.500,-0.240,-16.220
562,47713.354000,-48.459,-163.921,-110.703,260.083,-420.106,-189.714,-239.500,-41.240,-23.220
563,47713.376000,-59.228,-160.885,-103.784,261.156,-421.077,-194.654,-321.500,138.760,-30.220
564,47713.394000,-53.354,-156.838,-99.830,256.402,-419.089,-203.432,-407.500,356.760,-34.220
565,47713.420000,-34.753,-156.838,-98.842,252.521,-411.309,-209.280,-460.500,420.760,-27.220
566,47713.437000,-25.943,-151.779,-97.853,252.702,-410.330,-220.113,-570.500,428.760,-24.220
567,47713.455000,-22.027,-145.708,-98.842,250.805,-407.406,-225.005,-684.500,368.760,1.780
568,47713.476000,-22.027,-136.601,-98.842,240.196,-403.427,-235.651,-805.500,316.760,20.780
569,47713.506000,-15.174,-129.518,-101.807,233.501,-397.549,-247.353,-935.500,300.760,41.780
570,47713.530000,-4.405,-124.459,-119.598,221.890,-400.339,-253.051,-1060.500,169.760,56.780
571,47713.548000,-1.468,-118.387,-147.274,212.199,-397.341,-259.774,-1145.500,-64.240,62.780
572,47713.561000,-4.405,-111.304,-157.158,203.505,-398.222,-265.526,-1237.500,-301.240,48.780
573,47713.570000,-19.090,-86.008,-160.124,191.816,-400.048,-267.286,-1295.500,-358.240,48.780
574,47713.601000,-43.564,-76.901,-175.938,185.010,-400.951,-269.133,-1317.500,-319.240,66.780
575,47713.617000,-46.501,-75.889,-208.556,173.406,-398.901,-277.791,-1336.500,-130.240,106.780
576,47713.645000,-38.669,-60.711,-212.510,154.052,-397.743,-290.247,-1328.500,91.760,124.780
577,47713.662000,-45.522,-47.557,-201.637,141.400,-393.752,-295.935,-1327.500,367.760,158.780
578,47713.685000,-37.690,-43.510,-202.625,125.007,-389.715,-311.401,-1345.500,598.760,190.780
579,47713.702000,-9.300,-37.439,-210.533,118.182,-382.876,-316.210,-1365.500,557.760,182.780
580,47713.720000,-6.363,-22.261,-206.579,98.783,-374.945,-329.659,-1393.500,430.760,176.780
581,47713.751000,-24.964,-8.095,-201.637,95.925,-373.947,-334.532,-1431.500,512.760,215.780
582,47713.772000,-20.069,-3.036,-219.429,68.655,-364.979,-345.873,-1456.500,556.760,200.780
583,47713.795000,5.384,4.047,-227.336,49.256,-358.984,-358.335,-1458.500,490.760,188.780
584,47713.812000,-9.300,14.166,-215.475,32.542,-352.062,-357.063,-1482.500,381.760,194.780
585,47713.835000,-21.048,27.320,-220.417,16.054,-347.063,-367.606,-1515.500,471.760,212.780
586,47713.850000,2.447,47.557,-220.417,5.272,-341.159,-369.391,-1550.500,502.760,230.780
587,47713.870000,18.111,60.711,-220.417,-16.205,-335.153,-374.925,-1579.500,284.760,216.780
588,47713.903000,-0.489,61.723,-228.324,-34.839,-335.954,-371.641,-1605.500,131.760,212.780
589,47713.931000,-19.090,72.854,-247.104,-60.281,-331.851,-373.164,-1597.500,231.760,219.780
590,47713.934000,-6.363,86.008,-241.174,-71.124,-324.982,-371.996,-1596.500,263.760,228.780
591,47713.952000,-0.489,97.138,-238.208,-90.764,-319.001,-370.671,-1588.500,177.760,215.780
592,47713.975000,-12.237,105.233,-241.174,-115.263,-312.973,-371.229,-1572.500,181.760,202.780
593,47713.997000,-15.174,121.423,-231.290,-124.120,-316.768,-366.146,-1575.500,251.760,198.780
594,47714.20000,7.342,132.553,-250.069,-147.796,-308.822,-358.845,-1591.500,143.760,169.780
595,47714.26000,-31.816,145.708,-232.278,-162.578,-306.758,-353.664,-1549.500,72.760,151.780
596,47714.56000,-13.216,162.909,-233.266,-186.159,-299.775,-351.286,-1519.500,315.760,184.780
597,47714.76000,34.753,184.158,-235.243,-189.199,-293.947,-348.285,-1510.500,382.760,158.780
598,47714.99000,15.174,190.229,-228.324,-212.848,-292.774,-339.008,-1515.500,47.760,138.780
599,47714.121000,-34.753,181.123,-215.475,-227.803,-286.849,-325.953,-1447.500,-16.240,170.780
600,47714.154000,-18.111,183.146,-211.521,-237.658,-286.764,-321.841,-1429.500,275.760,224.780
601,47714.181000,31.816,205.407,-214.486,-252.562,-278.900,-312.726,-1449.500,333.760,207.780
602,47714.195000,33.774,224.632,-211.521,-259.455,-277.872,-310.636,-1490.500,115.760,114.780
603,47714.204000,-0.489,206.419,-220.417,-282.289,-275.751,-292.515,-1462.500,-83.240,45.780
604,47714.221000,0.489,193.265,-205.591,-285.320,-276.697,-286.553,-1387.500,-2.240,51.780
605,47714.240000,19.090,210.466,-188.788,-295.391,-271.785,-272.598,-1402.500,65.760,100.780
606,47714.253000,29.859,236.775,-186.811,-309.358,-272.643,-256.599,-1426.500,-67.240,130.780
607,47714.280000,20.069,242.846,-204.602,-325.144,-273.476,-248.443,-1394.500,-333.240,119.780
608,47714.302000,-10.279,242.846,-197.683,-335.187,-275.338,-232.512,-1319.500,-300.240,122.780
609,47714.320000,-6.363,245.881,-177.915,-340.246,-270.463,-225.537,-1248.500,-137.240,195.780
610,47714.337000,42.585,239.810,-190.764,-354.231,-267.451,-210.526,-1222.500,39.760,227.780
611,47714.360000,39.648,246.893,-194.718,-357.356,-267.435,-199.642,-1212.500,-412.240,194.780
612,47714.382000,-33.774,251.953,-191.753,-360.603,-269.361,-180.878,-1184.500,-688.240,141.780
613,47714.402000,-47.480,254.988,-180.880,-364.656,-267.398,-173.917,-1052.500,-186.240,157.780
614,47714.425000,-6.363,248.917,-176.927,-369.730,-266.396,-163.984,-916.500,334.760,158.780
615,47714.445000,20.069,244.870,-175.938,-384.539,-259.494,-159.792,-873.500,368.760,118.780
616,47714.467000,23.985,252.964,-165.066,-380.763,-259.538,-151.983,-845.500,189.760,98.780
617,47714.485000,12.237,253.976,-157.158,-394.627,-256.519,-143.866,-777.500,118.760,118.780
618,47714.507000,12.237,250.941,-148.263,-391.753,-255.581,-140.965,-732.500,162.760,148.780
619,47714.525000,22.027,248.917,-140.355,-396.785,-249.737,-135.960,-650.500,254.760,168.780
620,47714.547000,13.216,250.941,-134.425,-401.773,-248.730,-130.951,-613.500,300.760,191.780
621,47714.576000,9.300,256.000,-126.517,-407.775,-241.909,-126.915,-574.500,476.760,226.780
622,47714.604000,34.753,246.893,-114.656,-407.846,-236.105,-125.936,-509.500,560.760,262.780
623,47714.633000,60.207,238.798,-110.703,-407.899,-232.237,-124.955,-506.500,253.760,234.780
624,47714.646000,47.480,237.787,-115.645,-410.056,-229.326,-115.076,-534.500,-172.240,184.780
625,47714.655000,17.132,236.775,-124.541,-416.964,-236.043,-108.054,-513.500,-257.240,151.780
626,47714.677000,14.195,236.775,-125.529,-420.039,-232.152,-102.098,-461.500,-115.240,116.780
627,47714.697000,22.027,237.787,-136.402,-419.138,-231.198,-98.177,-440.500,-89.240,92.780
628,47714.715000,5.384,233.739,-156.170,-422.108,-231.173,-96.156,-380.500,-75.240,20.780
629,47714.737000,3.426,239.810,-165.066,-417.320,-231.223,-90.334,-289.500,40.760,-51.220
630,47714.766000,-0.489,244.870,-192.741,-414.340,-234.151,-91.367,-181.500,81.760,-138.220
631,47714.775000,-18.111,254.988,-219.429,-416.280,-236.068,-91.331,-47.500,163.760,-260.220
632,47714.797000,-44.543,256.000,-240.185,-419.119,-238.940,-95.215,153.500,382.760,-371.220
633,47714.825000,-15.174,265.107,-241.174,-413.092,-240.920,-103.195,360.500,464.760,-481.220
634,47714.839000,2.447,283.320,-254.023,-408.069,-245.797,-108.200,598.500,281.760,-565.220
635,47714.856000,-6.363,288.379,-263.907,-401.876,-250.672,-124.056,853.500,273.760,-574.220
636,47714.873000,4.405,296.474,-261.931,-395.892,-253.622,-129.080,978.500,315.760,-569.220
637,47714.890000,22.027,302.545,-255.012,-384.711,-261.440,-148.958,1223.500,250.760,-550.220
638,47714.909000,24.964,318.735,-238.208,-371.593,-263.469,-170.846,1425.500,161.760,-507.220
639,47714.936000,28.880,322.783,-232.278,-368.519,-261.552,-179.762,1633.500,160.760,-420.220
640,47714.950000,40.627,322.783,-227.336,-351.485,-267.488,-199.746,1794.500,118.760,-351.220
641,47714.977000,35.732,319.747,-226.347,-341.440,-271.434,-212.717,1939.500,63.760,-259.220
642,47715.0,26.922,315.700,-221.405,-325.317,-273.486,-238.596,2056.500,87.760,-174.220
643,47715.32000,25.943,316.711,-215.475,-322.190,-275.438,-248.493,2170.500,72.760,-91.220
644,47715.59000,30.837,308.617,-214.486,-301.209,-277.536,-272.489,2214.500,23.760,-69.220
645,47715.78000,23.006,295.462,-215.475,-281.204,-289.304,-291.534,2288.500,-82.240,-41.220
646,47715.89000,16.153,285.344,-210.533,-264.398,-283.638,-304.635,2335.500,-115.240,-20.220
647,47715.111000,15.174,277.249,-203.614,-239.666,-288.685,-317.865,2350.500,-112.240,7.780
648,47715.129000,17.132,267.130,-194.718,-220.884,-288.843,-329.026,2361.500,-139.240,25.780
649,47715.151000,10.279,248.917,-191.753,-195.113,-294.864,-345.226,2366.500,-145.240,40.780
650,47715.172000,10.279,226.656,-187.799,-184.255,-293.988,-351.326,2337.500,-88.240,59.780
651,47715.189000,17.132,215.526,-179.892,-150.707,-302.018,-363.724,2294.500,-64.240,105.780
652,47715.206000,10.279,193.265,-182.857,-135.996,-298.278,-367.926,2254.500,17.760,153.780
653,47715.229000,8.321,174.040,-175.938,-111.257,-300.421,-383.128,2230.500,53.760,169.780
654,47715.251000,21.048,155.826,-181.869,-89.590,-306.416,-388.427,2166.500,-46.240,185.780
655,47715.274000,27.901,140.648,-186.811,-70.937,-311.421,-389.735,2093.500,-274.240,159.780
656,47715.295000,11.258,125.470,-192.741,-40.585,-315.568,-389.283,2021.500,-381.240,115.780
657,47715.312000,-1.468,107.257,-195.707,-34.741,-314.654,-388.403,1968.500,-298.240,97.780
658,47715.335000,7.342,83.984,-199.660,-1.391,-327.535,-387.009,1901.500,-306.240,40.780
659,47715.352000,2.447,57.676,-203.614,7.364,-329.554,-383.224,1819.500,-445.240,-11.220
660,47715.372000,-4.405,43.510,-209.544,32.799,-338.497,-378.741,1757.500,-425.240,-41.220
661,47715.392000,2.447,32.379,-208.556,58.163,-343.572,-372.293,1713.500,-367.240,-56.220
662,47715.414000,2.447,22.261,-203.614,67.871,-348.505,-365.568,1691.500,-342.240,-62.220
663,47715.445000,-9.300,5.059,-192.741,89.244,-354.517,-354.125,1658.500,-368.240,-62.220
664,47715.477000,-12.237,-5.059,-176.927,105.862,-358.540,-351.461,1618.500,-302.240,-44.220
665,47715.491000,-4.405,-17.202,-171.985,123.354,-362.579,-342.906,1564.500,-243.240,-15.220
666,47715.500000,-4.405,-31.368,-175.938,134.041,-365.585,-337.185,1499.500,-319.240,5.780
667,47715.517000,-21.048,-42.498,-172.973,152.461,-373.507,-323.719,1426.500,-419.240,5.780
668,47715.540000,-37.690,-52.617,-163.089,153.379,-374.487,-319.796,1364.500,-319.240,0.780
669,47715.574000,-28.880,-66.783,-169.019,167.919,-378.500,-310.204,1294.500,-155.240,6.780
670,47715.582000,-15.174,-74.877,-164.077,180.364,-382.503,-292.700,1267.500,-160.240,-0.220
671,47715.605000,-33.774,-84.996,-160.124,193.085,-386.490,-290.951,1196.500,-306.240,-33.220
672,47715.627000,-49.438,-102.198,-170.008,201.641,-389.488,-275.348,1116.500,-325.240,-54.220
673,47715.645000,-29.859,-107.257,-172.973,209.365,-387.629,-270.564,1048.500,-205.240,-86.220
674,47715.668000,-22.027,-110.292,-170.008,222.971,-396.470,-260.950,986.500,-308.240,-130.220
675,47715.684000,-30.837,-121.423,-168.031,226.807,-395.542,-257.081,928.500,-537.240,-159.220
676,47715.699000,-39.648,-125.470,-161.112,236.238,-398.555,-235.587,877.500,-648.240,-193.220
677,47715.720000,-48.459,-127.494,-156.170,243.895,-406.379,-221.931,832.500,-611.240,-223.220
678,47715.751000,-50.417,-134.577,-156.170,255.498,-406.493,-214.260,799.500,-474.240,-223.220
679,47715.781000,-43.564,-140.648,-146.286,264.159,-411.421,-203.579,771.500,-399.240,-218.220
680,47715.810000,-42.585,-142.672,-129.483,261.102,-409.466,-197.620,723.500,-264.240,-197.220
681,47715.824000,-43.564,-150.767,-115.645,278.611,-411.567,-191.036,669.500,-133.240,-162.220
682,47715.835000,-33.774,-159.874,-117.622,280.534,-411.587,-189.101,602.500,-44.240,-130.220
683,47715.854000,-23.006,-164.933,-111.691,283.383,-413.554,-183.243,531.500,-74.240,-114.220
684,47715.869000,-38.669,-172.016,-109.714,284.275,-415.504,-177.350,442.500,-143.240,-109.220
685,47715.886000,-43.564,-176.063,-108.726,290.986,-413.638,-170.579,355.500,-76.240,-109.220
686,47715.914000,-35.732,-181.123,-110.703,295.870,-414.651,-169.680,271.500,-44.240,-108.220
687,47715.931000,-33.774,-184.158,-108.726,288.967,-408.784,-169.565,231.500,-61.240,-110.220
688,47715.945000,-41.606,-180.111,-110.703,301.663,-415.677,-164.859,156.500,-99.240,-111.220
689,47715.967000,-47.480,-181.123,-111.691,301.619,-410.840,-164.864,89.500,-30.240,-104.220
690,47715.990000,-42.585,-182.134,-102.795,302.624,-411.815,-165.865,31.500,109.760,-102.220
691,47716.10000,-35.732,-184.158,-98.842,304.615,-411.831,-167.869,-43.500,190.760,-79.220
692,47716.32000,-28.880,-187.194,-91.923,298.796,-409.839,-171.706,-140.500,204.760,-44.220
693,47716.63000,-26.922,-182.134,-88.958,299.877,-405.970,-179.606,-254.500,213.760,-23.220
694,47716.88000,-23.006,-181.123,-91.923,300.898,-405.009,-182.578,-366.500,201.760,-1.220
695,47716.103000,-25.943,-180.111,-93.900,300.041,-404.993,-189.454,-485.500,188.760,11.780
696,47716.121000,-23.006,-173.028,-95.876,294.274,-404.934,-195.259,-537.500,196.760,17.780
697,47716.136000,-9.300,-169.992,-102.795,288.514,-400.035,-204.023,-647.500,148.760,23.780
698,47716.154000,-11.258,-165.945,-108.726,279.768,-398.983,-207.807,-750.500,-7.240,16.780
699,47716.171000,-30.837,-154.814,-112.680,270.113,-399.855,-214.527,-836.500,-42.240,23.780
700,47716.194000,-41.606,-140.648,-114.656,272.165,-398.900,-220.471,-897.500,127.760,44.780
701,47716.216000,-26.922,-130.530,-115.645,257.668,-393.916,-233.018,-974.500,304.760,77.780
702,47716.239000,-15.174,-120.411,-105.761,252.965,-388.054,-246.724,-1068.500,312.760,119.780
703,47716.256000,-21.048,-112.316,-102.795,245.328,-391.843,-255.444,-1174.500,301.760,164.780
704,47716.279000,-20.069,-108.269,-118.610,227.931,-388.767,-268.923,-1287.500,310.760,178.780
705,47716.296000,-13.216,-86.008,-113.668,224.119,-384.854,-276.735,-1334.500,325.760,169.780
706,47716.321000,-28.880,-65.771,-105.761,199.898,-378.811,-293.050,-1430.500,403.760,182.780
707,47716.339000,-40.627,-63.747,-137.390,198.130,-374.911,-305.821,-1507.500,583.760,214.780
708,47716.359000,-18.111,-59.700,-146.286,175.752,-364.052,-318.235,-1601.500,711.760,157.780
709,47716.384000,-17.132,-36.427,-147.274,149.729,-357.982,-343.378,-1705.500,689.760,46.780
710,47716.408000,-37.690,-14.166,-155.181,140.011,-350.146,-351.091,-1775.500,882.760,-64.220
711,47716.430000,-18.111,-13.154,-160.124,120.662,-332.534,-372.427,-1857.500,1045.760,-150.220
712,47716.439000,19.090,-4.047,-178.903,106.077,-321.748,-383.011,-1969.500,844.760,-265.220
713,47716.459000,36.711,21.249,-198.672,76.849,-310.827,-395.304,-2012.500,692.760,-315.220
714,47716.501000,33.774,44.522,-202.625,70.130,-309.789,-403.062,-2090.500,447.760,-311.220
715,47716.515000,34.753,53.628,-220.417,43.699,-298.903,-407.530,-2164.500,302.760,-304.220
716,47716.534000,40.627,73.866,-234.255,19.227,-293.841,-409.071,-2201.500,223.760,-312.220
717,47716.544000,41.606,98.150,-239.197,-10.111,-293.574,-409.537,-2190.500,152.760,-274.220
718,47716.563000,33.774,103.209,-256.000,-29.674,-286.620,-413.137,-2134.500,141.760,-205.220
719,47716.580000,30.837,111.304,-256.988,-52.223,-283.514,-411.757,-2085.500,246.760,-157.220
720,47716.608000,38.669,136.601,-241.174,-79.735,-276.496,-408.325,-2072.500,273.760,-88.220
721,47716.625000,46.501,153.802,-261.931,-91.520,-275.424,-406.149,-1998.500,118.760,-22.220
722,47716.647000,53.354,148.743,-270.826,-120.000,-277.107,-398.752,-1960.500,1.760,-5.220
723,47716.665000,24.964,159.874,-249.081,-132.878,-269.257,-393.611,-1945.500,-70.240,34.780
724,47716.687000,18.111,190.229,-248.093,-167.237,-269.920,-386.111,-1904.500,46.760,57.780
725,47716.705000,49.438,194.277,-247.104,-181.186,-272.713,-370.110,-1812.500,-109.240,84.780
726,47716.723000,6.363,201.360,-235.243,-199.934,-270.617,-361.905,-1765.500,-434.240,98.780
727,47716.755000,-11.258,218.561,-249.081,-223.686,-271.387,-345.733,-1758.500,-383.240,143.780
728,47716.789000,12.237,234.751,-243.151,-233.547,-276.142,-338.661,-1721.500,-85.240,148.780
729,47716.803000,30.837,233.739,-224.371,-251.394,-273.091,-326.536,-1638.500,-53.240,136.780
730,47716.816000,6.363,213.502,-228.324,-263.284,-272.025,-318.451,-1564.500,-172.240,123.780
731,47716.839000,-2.447,223.621,-231.290,-282.151,-273.807,-301.379,-1551.500,-291.240,120.780
732,47716.854000,13.216,258.024,-218.440,-287.182,-273.770,-293.415,-1554.500,-163.240,110.780
733,47716.868000,-0.489,258.024,-201.637,-300.241,-268.834,-276.454,-1481.500,-56.240,101.780
734,47716.895000,-8.321,228.680,-202.625,-313.239,-266.798,-261.460,-1355.500,110.760,70.780
735,47716.918000,13.216,227.668,-196.695,-326.990,-264.741,-259.250,-1295.500,181.760,46.780
736,47716.940000,11.258,254.988,-186.811,-335.087,-263.717,-244.341,-1309.500,130.760,11.780
737,47716.955000,-17.132,252.964,-184.834,-342.102,-256.889,-238.318,-1236.500,192.760,39.780
738,47716.977000,-7.342,246.893,-180.880,-345.237,-255.905,-227.435,-1178.500,372.760,30.780
739,47717.0,35.732,253.976,-175.938,-349.229,-252.971,-224.414,-1171.500,399.760,8.780
740,47717.17000,74.891,250.941,-173.961,-354.355,-253.907,-210.540,-1123.500,24.760,-8.220
741,47717.40000,32.795,252.964,-171.985,-366.390,-259.624,-190.631,-1118.500,-730.240,-37.220
742,47717.66000,-12.237,261.059,-169.019,-374.425,-259.565,-178.676,-1060.500,-987.240,-32.220
743,47717.84000,-23.985,260.047,-173.961,-380.528,-266.300,-161.824,-936.500,-686.240,37.780
744,47717.116000,1.468,249.929,-175.938,-377.705,-265.365,-155.969,-811.500,-362.240,79.780
745,47717.135000,10.279,251.953,-168.031,-386.719,-267.232,-143.009,-732.500,-297.240,65.780
746,47717.149000,-6.363,251.953,-163.089,-383.862,-266.296,-139.123,-640.500,-221.240,59.780
747,47717.163000,-12.237,250.941,-155.181,-388.935,-267.229,-128.203,-536.500,52.760,60.780
748,47717.185000,2.447,250.941,-146.286,-388.980,-262.392,-128.208,-485.500,197.760,61.780
749,47717.206000,10.279,248.917,-139.367,-392.921,-257.519,-129.128,-410.500,391.760,72.780
750,47717.215000,14.195,245.881,-133.436,-389.043,-253.685,-129.201,-348.500,488.760,89.780
751,47717.241000,21.048,242.846,-125.529,-389.077,-253.686,-127.232,-301.500,546.760,95.780
752,47717.264000,26.922,246.893,-117.622,-395.019,-247.830,-126.149,-251.500,501.760,87.780
753,47717.284000,19.090,242.846,-124.541,-400.846,-250.678,-127.027,-201.500,392.760,57.780
754,47717.301000,-20.069,247.905,-134.425,-398.812,-247.787,-132.973,-148.500,612.760,-6.220
755,47717.324000,-18.111,252.964,-123.552,-396.786,-247.801,-136.947,-40.500,1099.760,-19.220
756,47717.346000,32.795,240.822,-133.436,-397.706,-237.142,-145.803,-8.500,1181.760,-76.220
757,47717.379000,49.438,237.787,-166.054,-397.584,-241.007,-150.723,-5.500,835.760,-133.220
758,47717.399000,40.627,246.893,-183.846,-395.688,-238.124,-148.791,13.500,324.760,-207.220
759,47717.414000,31.816,263.083,-205.591,-393.653,-241.041,-151.777,87.500,-82.240,-274.220
760,47717.431000,11.258,275.225,-238.208,-394.622,-243.936,-150.772,263.500,-383.240,-359.220
761,47717.459000,-10.279,281.296,-265.884,-389.580,-254.619,-153.802,497.500,-371.240,-409.220
762,47717.471000,4.405,303.557,-287.629,-381.603,-259.521,-159.844,768.500,-238.240,-441.220
763,47717.490000,8.321,321.771,-302.456,-376.459,-262.455,-172.730,1097.500,-144.240,-437.220
764,47717.511000,-6.363,325.818,-305.421,-367.470,-269.300,-179.772,1431.500,7.760,-363.220
765,47717.544000,5.384,338.972,-302.456,-354.394,-270.364,-199.691,1597.500,95.760,-304.220
766,47717.558000,33.774,353.138,-286.641,-335.370,-272.444,-223.652,1916.500,96.760,-178.220
767,47717.590000,22.027,354.150,-275.768,-331.282,-274.406,-232.582,2200.500,-115.240,-86.220
768,47717.599000,11.258,355.162,-258.965,-307.280,-274.590,-262.540,2424.500,-196.240,-12.220
769,47717.616000,13.216,357.186,-255.012,-296.290,-280.483,-272.572,2576.500,-184.240,-2.220
770,47717.639000,12.237,350.103,-246.116,-267.420,-283.616,-299.660,2698.500,-167.240,-10.220
771,47717.656000,9.300,334.925,-230.301,-260.396,-287.541,-307.655,2778.500,-176.240,-27.220
772,47717.679000,12.237,326.830,-217.452,-223.775,-293.654,-328.969,2801.500,-208.240,-57.220
773,47717.696000,19.090,321.771,-210.533,-190.151,-298.776,-347.278,2817.500,-278.240,-75.220
774,47717.726000,9.300,296.474,-211.521,-167.549,-303.814,-350.626,2824.500,-300.240,-82.220
775,47717.733000,8.321,277.249,-202.625,-138.878,-307.927,-365.895,2812.500,-284.240,-99.220
776,47717.756000,9.300,260.047,-202.625,-114.319,-312.984,-369.277,2768.500,-280.240,-113.220
777,47717.777000,14.195,244.870,-203.614,-77.983,-320.081,-373.849,2760.500,-320.240,-119.220
778,47717.795000,7.342,217.549,-195.707,-62.248,-325.059,-376.091,2737.500,-353.240,-137.220
779,47717.817000,-0.489,194.277,-194.718,-23.046,-334.122,-375.789,2701.500,-311.240,-152.220
780,47717.840000,15.174,176.063,-192.741,-1.553,-336.255,-373.214,2652.500,-380.240,-157.220
781,47717.860000,16.153,156.838,-181.869,37.589,-346.290,-368.972,2592.500,-458.240,-153.220
782,47717.887000,1.468,131.542,-171.985,73.717,-353.399,-361.728,2569.500,-444.240,-137.220
783,47717.903000,0.489,108.269,-165.066,88.309,-357.409,-355.090,2519.500,-371.240,-128.220
784,47717.930000,0.489,84.996,-157.158,126.247,-365.512,-339.016,2446.500,-367.240,-96.220
785,47717.960000,-7.342,62.735,-153.205,141.730,-365.664,-329.445,2356.500,-327.240,-76.220
786,47717.978000,-5.384,43.510,-131.459,168.957,-375.602,-315.148,2255.500,-283.240,-42.220
787,47717.995000,-0.489,22.261,-131.459,182.449,-377.674,-302.587,2134.500,-373.240,-43.220
788,47718.9000,-9.300,-3.036,-133.436,204.749,-385.633,-287.221,2023.500,-406.240,-60.220
789,47718.25000,-24.964,-25.296,-129.483,220.060,-391.602,-264.842,1896.500,-308.240,-78.220
790,47718.49000,-27.901,-39.462,-123.552,240.531,-392.762,-260.281,1791.500,-211.240,-91.220
791,47718.69000,-21.048,-60.711,-127.506,250.983,-394.813,-241.759,1735.500,-212.240,-97.220
792,47718.91000,-27.901,-90.055,-117.622,255.747,-397.768,-232.979,1623.500,-260.240,-115.220
793,47718.108000,-28.880,-104.221,-119.598,272.096,-398.903,-216.532,1513.500,-249.240,-123.220
794,47718.131000,-23.006,-115.352,-121.575,276.842,-399.924,-207.754,1418.500,-227.240,-110.220
795,47718.159000,-26.922,-127.494,-108.726,292.187,-403.956,-188.332,1341.500,-281.240,-113.220
796,47718.169000,-48.459,-135.589,-107.737,295.893,-404.003,-176.584,1253.500,-316.240,-106.220
797,47718.202000,-48.459,-145.708,-108.726,302.562,-406.979,-164.885,1174.500,-191.240,-87.220
798,47718.211000,-37.690,-153.802,-97.853,309.135,-408.993,-148.263,1111.500,-43.240,-73.220
799,47718.229000,-38.669,-166.957,-98.842,313.932,-408.075,-143.427,1021.500,-74.240,-70.220
800,47718.256000,-37.690,-169.992,-94.888,318.678,-409.095,-134.650,975.500,-106.240,-69.220
801,47718.274000,-40.627,-175.051,-87.969,329.303,-411.137,-125.975,884.500,-170.240,-78.220
802,47718.296000,-44.543,-186.182,-80.062,332.023,-412.144,-113.224,795.500,-174.240,-98.220
803,47718.319000,-41.606,-194.277,-79.073,332.870,-407.320,-108.323,688.500,-195.240,-105.220
804,47718.336000,-39.648,-198.324,-71.166,336.595,-411.238,-95.586,582.500,-258.240,-115.220
805,47718.359000,-45.522,-202.372,-72.154,340.292,-410.318,-83.839,475.500,-326.240,-132.220
806,47718.379000,-48.459,-202.372,-71.166,344.163,-411.324,-80.953,383.500,-330.240,-153.220
807,47718.393000,-53.354,-203.383,-68.201,352.892,-414.312,-75.197,295.500,-300.240,-171.220
808,47718.440000,-50.417,-211.478,-69.189,347.861,-410.404,-69.206,213.500,-265.240,-180.220
809,47718.446000,-45.522,-211.478,-68.201,353.610,-408.528,-63.403,171.500,-225.240,-186.220
810,47718.460000,-51.396,-205.407,-70.178,353.610,-408.528,-63.403,79.500,-208.240,-194.220
811,47718.481000,-50.417,-205.407,-65.236,353.583,-405.626,-63.406,11.500,-79.240,-184.220
812,47718.503000,-46.501,-205.407,-61.282,360.502,-405.684,-67.466,-64.500,60.760,-162.220
813,47718.525000,-37.690,-204.395,-58.317,365.368,-402.827,-67.556,-152.500,174.760,-131.220
814,47718.531000,-24.964,-208.443,-58.317,364.484,-399.909,-74.435,-260.500,193.760,-94.220
815,47718.559000,-23.006,-207.431,-59.305,359.634,-398.894,-77.304,-376.500,124.760,-71.220
816,47718.576000,-31.816,-202.372,-60.293,358.803,-401.780,-84.177,-483.500,130.760,-53.220
817,47718.599000,-32.795,-197.312,-61.282,358.838,-399.843,-87.133,-531.500,189.760,-44.220
818,47718.625000,-23.985,-193.265,-64.247,354.177,-394.946,-102.807,-617.500,306.760,-21.220
819,47718.649000,-16.153,-186.182,-61.282,353.303,-394.931,-108.699,-708.500,352.760,8.780
820,47718.664000,-10.279,-181.123,-61.282,351.683,-393.926,-128.360,-811.500,364.760,47.780
821,47718.683000,-12.237,-168.980,-66.224,343.100,-389.962,-142.980,-927.500,355.760,83.780
822,47718.711000,-11.258,-163.921,-81.050,337.377,-392.804,-149.766,-1029.500,321.760,120.780
823,47718.729000,-7.342,-151.779,-78.085,329.842,-386.909,-169.329,-1121.500,309.760,127.780
824,47718.756000,-7.342,-139.636,-81.050,326.049,-384.931,-177.140,-1238.500,258.760,130.780
825,47718.774000,3.426,-128.506,-92.911,316.601,-385.790,-195.676,-1342.500,96.760,129.780
826,47718.791000,7.342,-122.435,-107.737,303.993,-384.701,-202.346,-1383.500,-35.240,134.780
827,47718.814000,-11.258,-119.399,-121.575,294.556,-390.399,-218.908,-1467.500,-223.240,143.780
828,47718.834000,-34.753,-108.269,-136.402,276.119,-386.350,-229.415,-1554.500,-150.240,153.780
829,47718.849000,-38.669,-93.091,-147.274,266.532,-383.346,-242.047,-1616.500,108.760,151.780
830,47718.870000,-33.774,-83.984,-156.170,248.225,-376.386,-261.420,-1669.500,323.760,128.780
831,47718.903000,-16.153,-74.877,-163.089,246.450,-377.326,-271.232,-1741.500,380.760,94.780
832,47718.918000,-11.258,-56.664,-169.019,219.353,-370.284,-291.435,-1834.500,315.760,51.780
833,47718.935000,-19.090,-46.545,-195.707,206.796,-367.256,-302.045,-1902.500,291.760,19.780
834,47718.958000,-14.195,-29.344,-208.556,192.413,-365.170,-319.513,-1928.500,364.760,3.780
835,47718.975000,-10.279,-7.083,-210.533,173.975,-359.185,-331.008,-1939.500,396.760,3.780
836,47718.995000,-25.943,0.000,-229.313,148.696,-348.297,-345.340,-1948.500,524.760,7.780
837,47719.20000,-4.405,7.083,-240.185,124.412,-335.482,-361.661,-1913.500,703.760,-0.220
838,47719.40000,19.090,29.344,-231.290,113.761,-332.474,-369.352,-1875.500,629.760,27.780
839,47719.60000,16.153,53.628,-225.359,87.514,-328.353,-380.706,-1898.500,488.760,78.780
840,47719.76000,22.027,70.830,-231.290,67.933,-319.464,-384.307,-1925.500,420.760,138.780
841,47719.96000,30.837,90.055,-243.151,38.733,-317.253,-393.638,-1907.500,249.760,189.780
842,47719.116000,1.468,95.115,-265.884,27.077,-313.270,-400.327,-1825.500,305.760,213.780
843,47719.135000,-9.300,98.150,-255.012,0.578,-304.323,-399.869,-1800.500,441.760,228.780
844,47719.156000,6.363,108.269,-254.023,-30.746,-291.456,-405.237,-1758.500,653.760,221.780
845,47719.178000,24.964,114.340,-233.266,-45.424,-289.387,-405.964,-1710.500,589.760,233.780
846,47719.192000,39.648,124.459,-215.475,-68.935,-282.399,-407.525,-1750.500,283.760,210.780
847,47719.219000,18.111,133.565,-232.278,-85.587,-282.249,-406.246,-1792.500,133.760,178.780
848,47719.236000,-3.426,149.755,-226.347,-115.135,-270.378,-400.815,-1743.500,336.760,173.780
849,47719.264000,-6.363,157.850,-199.660,-121.032,-269.358,-399.727,-1784.500,508.760,160.780
850,47719.281000,31.816,168.980,-206.579,-152.502,-259.403,-395.244,-1892.500,285.760,50.780
851,47719.304000,56.291,197.312,-212.510,-170.253,-261.187,-386.068,-1955.500,-68.240,-27.220
852,47719.331000,5.384,208.443,-199.660,-192.923,-260.024,-376.808,-1929.500,-81.240,-33.220
853,47719.348000,-14.195,200.348,-185.822,-211.783,-258.902,-361.709,-1936.500,85.760,-47.220
854,47719.383000,32.795,223.621,-188.788,-224.686,-253.957,-353.611,-2040.500,-13.240,-92.220
855,47719.383000,53.354,251.953,-188.788,-251.337,-262.441,-335.409,-2114.500,-406.240,-112.220
856,47719.405000,6.363,257.012,-193.730,-263.269,-262.345,-324.369,-2056.500,-393.240,-106.220
857,47719.427000,-0.489,257.012,-170.996,-282.197,-265.098,-303.358,-1962.500,-147.240,-53.220
858,47719.446000,22.027,277.249,-169.019,-292.216,-262.119,-291.371,-1925.500,-129.240,16.780
859,47719.463000,22.027,290.403,-177.915,-317.025,-259.980,-272.229,-1897.500,-424.240,87.780
860,47719.490000,3.426,304.569,-171.985,-330.185,-264.729,-244.426,-1878.500,-653.240,125.780
861,47719.499000,-1.468,304.569,-174.950,-336.229,-264.685,-234.475,-1842.500,-688.240,161.780
862,47719.531000,-7.342,305.581,-174.950,-350.369,-267.489,-207.641,-1764.500,-727.240,204.780
863,47719.549000,-25.943,308.617,-166.054,-363.322,-270.290,-192.642,-1691.500,-706.240,205.780
864,47719.569000,-58.249,303.557,-162.100,-373.514,-269.256,-169.820,-1597.500,-497.240,193.780
865,47719.591000,-28.880,292.427,-164.077,-377.584,-267.294,-161.875,-1490.500,-33.240,193.780
866,47719.609000,21.048,297.486,-166.054,-384.849,-263.383,-140.093,-1452.500,67.760,119.780
867,47719.631000,11.258,301.534,-169.019,-385.897,-265.314,-135.150,-1406.500,-237.240,5.780
868,47719.651000,-45.522,277.249,-186.811,-391.134,-269.161,-113.395,-1266.500,-150.240,-39.220
869,47719.671000,-24.964,270.166,-176.927,-394.339,-266.246,-99.559,-1197.500,108.760,-86.220
870,47719.696000,-9.300,282.308,-174.950,-399.266,-264.267,-98.490,-1078.500,522.760,-140.220
871,47719.719000,16.153,275.225,-173.961,-400.348,-264.264,-92.564,-891.500,777.760,-214.220
872,47719.741000,33.774,274.213,-164.077,-400.348,-264.264,-92.564,-759.500,780.760,-239.220
873,47719.776000,43.564,268.142,-154.193,-400.418,-262.332,-89.612,-618.500,636.760,-220.220
874,47719.795000,42.585,263.083,-146.286,-401.404,-265.228,-87.622,-491.500,438.760,-158.220
875,47719.804000,36.711,259.036,-147.274,-396.581,-265.276,-83.770,-360.500,241.760,-81.220
876,47719.819000,38.669,254.988,-150.239,-403.422,-266.181,-83.647,-223.500,54.760,-7.220
877,47719.841000,24.964,259.036,-158.147,-405.406,-261.325,-84.602,-107.500,-128.240,3.780
878,47719.864000,-3.426,265.107,-156.170,-402.505,-263.290,-81.698,-30.500,-109.240,3.780
879,47719.880000,-0.489,264.095,-150.239,-396.608,-260.438,-84.759,154.500,110.760,17.780
880,47719.906000,21.048,263.083,-152.216,-399.413,-265.243,-89.626,321.500,235.760,12.780
881,47719.927000,20.069,269.154,-162.100,-393.448,-262.388,-96.626,443.500,119.760,1.780
882,47719.945000,11.258,269.154,-162.100,-400.158,-264.253,-103.397,566.500,59.760,17.780
883,47719.962000,9.300,274.213,-166.054,-398.150,-260.397,-108.359,693.500,25.760,0.780
884,47719.979000,0.489,284.332,-178.903,-392.089,-260.439,-119.295,849.500,24.760,-26.220
885,47720.0,1.468,287.368,-192.741,-391.881,-262.363,-130.125,1008.500,59.760,-47.220
886,47720.29000,2.447,294.451,-208.556,-382.900,-266.305,-138.155,1166.500,43.760,-65.220
887,47720.61000,-0.489,308.617,-216.463,-374.752,-267.326,-156.018,1248.500,44.760,-75.220
888,47720.80000,2.447,320.759,-219.429,-372.667,-262.497,-165.906,1430.500,61.760,-88.220
889,47720.94000,6.363,326.830,-217.452,-369.341,-267.342,-185.648,1625.500,69.760,-94.220
890,47720.102000,4.405,326.830,-221.405,-352.507,-266.514,-197.760,1819.500,79.760,-66.220
891,47720.125000,21.048,340.996,-213.498,-344.272,-269.466,-219.560,1974.500,74.760,-25.220
892,47720.143000,17.132,337.960,-212.510,-328.184,-269.584,-244.456,2135.500,-23.240,35.780
893,47720.156000,6.363,327.842,-209.544,-320.113,-273.513,-256.408,2245.500,-15.240,92.780
894,47720.176000,13.216,326.830,-206.579,-299.115,-273.674,-282.375,2320.500,22.760,117.780
895,47720.208000,11.258,318.735,-206.579,-286.230,-272.813,-292.448,2366.500,27.760,122.780
896,47720.225000,8.321,295.462,-205.591,-257.438,-274.983,-315.598,2436.500,-2.240,132.780
897,47720.247000,11.258,282.308,-200.649,-246.484,-275.070,-326.620,2436.500,-37.240,113.780
898,47720.265000,17.132,273.202,-196.695,-218.758,-275.301,-345.815,2414.500,-101.240,86.780
899,47720.293000,9.300,258.024,-195.707,-204.798,-279.282,-358.855,2401.500,-131.240,73.780
900,47720.325000,1.468,237.787,-197.683,-181.106,-281.420,-370.101,2358.500,-61.240,54.780
901,47720.354000,8.321,233.739,-190.764,-152.539,-283.603,-380.449,2309.500,60.760,45.780
902,47720.356000,18.111,222.609,-178.903,-129.878,-283.799,-389.709,2311.500,119.760,80.780
903,47720.378000,32.795,198.324,-169.019,-96.550,-281.194,-395.224,2279.500,-50.240,78.780
904,47720.395000,28.880,175.051,-176.927,-87.542,-289.974,-402.265,2245.500,-159.240,68.780
905,47720.425000,14.195,160.885,-177.915,-56.169,-293.159,-404.785,2173.500,-225.240,67.780
906,47720.439000,10.279,142.672,-170.996,-34.573,-295.287,-408.118,2119.500,-150.240,90.780
907,47720.461000,13.216,119.399,-176.927,-12.014,-299.360,-409.497,2048.500,-128.240,100.780
908,47720.481000,13.216,105.233,-175.938,22.201,-309.352,-403.199,1963.500,-158.240,84.780
909,47720.503000,8.321,86.008,-180.880,30.946,-306.532,-401.388,1881.500,-170.240,58.780
910,47720.520000,5.384,66.783,-185.822,54.431,-310.617,-399.830,1800.500,-125.240,25.780
911,47720.543000,8.321,50.593,-195.707,63.255,-314.568,-398.997,1726.500,-132.240,4.780
912,47720.564000,0.489,38.451,-193.730,89.589,-318.685,-392.567,1690.500,-120.240,-5.220
913,47720.581000,-2.447,26.308,-185.822,102.239,-312.997,-391.813,1630.500,-30.240,-3.220
914,47720.609000,5.384,9.107,-186.811,122.650,-318.999,-381.338,1582.500,28.760,12.780
915,47720.641000,15.174,-2.024,-189.776,135.302,-322.990,-375.651,1521.500,-82.240,0.780
916,47720.655000,5.384,-11.130,-184.834,159.645,-327.091,-367.216,1460.500,-167.240,-2.220
917,47720.664000,-8.321,-23.273,-179.892,178.193,-330.166,-363.603,1405.500,-93.240,5.780
918,47720.686000,-5.384,-37.439,-179.892,186.896,-330.252,-357.850,1344.500,-26.240,14.780
919,47720.704000,5.384,-47.557,-173.961,197.522,-334.229,-348.189,1281.500,-109.240,21.780
920,47720.729000,5.384,-62.735,-174.950,205.160,-334.311,-337.495,1211.500,-208.240,2.780
921,47720.751000,-1.468,-65.771,-162.100,219.744,-341.225,-328.885,1178.500,-232.240,-8.220
922,47720.766000,-7.342,-76.901,-160.124,230.404,-345.200,-321.193,1111.500,-227.240,-27.220
923,47720.789000,-5.384,-89.043,-157.158,244.009,-348.234,-314.539,1030.500,-233.240,-46.220
924,47720.809000,-16.153,-108.269,-151.228,257.535,-350.304,-303.947,950.500,-261.240,-53.220
925,47720.833000,-8.321,-116.364,-152.216,256.418,-348.367,-297.039,862.500,-231.240,-58.220
926,47720.846000,-3.426,-120.411,-148.263,264.092,-356.190,-284.367,776.500,-246.240,-72.220
927,47720.868000,-14.195,-128.506,-146.286,269.876,-354.313,-280.534,698.500,-296.240,-71.220
928,47720.889000,-11.258,-132.553,-143.320,281.498,-358.298,-271.875,624.500,-278.240,-71.220
929,47720.906000,-6.363,-140.648,-147.274,286.331,-363.185,-266.048,547.500,-284.240,-66.220
930,47720.934000,-10.279,-142.672,-142.332,285.266,-365.117,-260.120,509.500,-296.240,-67.220
931,47720.949000,-18.111,-145.708,-138.378,287.977,-367.092,-246.383,449.500,-302.240,-58.220
932,47720.966000,-14.195,-148.743,-143.320,291.865,-366.161,-245.469,392.500,-273.240,-47.220
933,47720.989000,-20.069,-151.779,-147.274,300.525,-369.153,-235.774,336.500,-323.240,-43.220
934,47721.11000,-33.774,-154.814,-144.309,300.517,-372.058,-233.802,279.500,-304.240,-39.220
935,47721.29000,-25.943,-155.826,-145.297,302.405,-374.015,-228.910,217.500,-190.240,-31.220
936,47721.76000,-23.985,-155.826,-144.309,306.329,-376.954,-227.992,156.500,-149.240,-27.220
937,47721.89000,-30.837,-154.814,-142.332,301.349,-374.978,-223.968,98.500,-108.240,-25.220
938,47721.103000,-28.880,-160.885,-142.332,310.138,-375.059,-223.139,73.500,-66.240,-23.220
939,47721.115000,-20.069,-155.826,-133.436,312.113,-375.076,-224.159,20.500,12.760,-23.220
940,47721.133000,-24.964,-156.838,-131.459,303.333,-377.898,-224.000,-43.500,-5.240,-21.220
941,47721.165000,-26.922,-153.802,-127.506,306.311,-376.955,-227.007,-115.500,22.760,-16.220
942,47721.185000,-19.090,-153.802,-122.564,300.361,-372.066,-224.939,-192.500,80.760,-9.220
943,47721.208000,-19.090,-154.814,-124.541,300.491,-371.091,-232.818,-286.500,78.760,-4.220
944,47721.222000,-19.090,-148.743,-128.494,295.632,-367.173,-236.674,-377.500,85.760,-1.220
945,47721.240000,-14.195,-143.684,-123.552,294.793,-371.028,-242.562,-451.500,84.760,3.780
946,47721.257000,-19.090,-135.589,-121.575,291.909,-370.998,-245.464,-524.500,115.760,16.780
947,47721.280000,-21.048,-131.542,-123.552,289.111,-367.092,-255.264,-557.500,157.760,24.780
948,47721.299000,-15.174,-127.494,-118.610,280.392,-367.007,-260.032,-629.500,259.760,56.780
949,47721.321000,-6.363,-125.470,-121.575,273.696,-361.129,-271.734,-728.500,314.760,82.780
950,47721.348000,1.468,-117.375,-125.529,267.902,-358.168,-277.541,-832.500,332.760,103.780
951,47721.373000,6.363,-110.292,-123.552,259.285,-354.205,-290.191,-918.500,274.760,128.780
952,47721.388000,10.279,-103.209,-122.564,250.531,-354.122,-292.990,-1009.500,163.760,124.780
953,47721.410000,10.279,-87.020,-136.402,238.997,-354.004,-304.599,-1102.500,-25.240,132.780
954,47721.427000,1.468,-88.032,-160.124,225.357,-350.972,-309.284,-1165.500,-151.240,179.780
955,47721.445000,0.489,-86.008,-158.147,207.884,-352.740,-315.864,-1243.500,-106.240,216.780
956,47721.468000,10.279,-64.759,-157.158,199.312,-357.486,-326.536,-1287.500,-121.240,233.780
957,47721.496000,1.468,-56.664,-179.892,188.601,-361.257,-327.326,-1364.500,-289.240,258.780
958,47721.510000,-16.153,-52.617,-192.741,165.186,-359.104,-331.837,-1386.500,-364.240,253.780
959,47721.533000,-27.901,-35.415,-189.776,149.583,-362.830,-332.541,-1422.500,-187.240,265.780
960,47721.552000,-27.901,-23.273,-209.544,129.234,-361.664,-343.995,-1471.500,92.760,286.780
961,47721.570000,-17.132,-12.142,-220.417,119.499,-355.765,-349.737,-1502.500,283.760,273.780
962,47721.590000,-13.216,-3.036,-224.371,96.135,-349.737,-359.175,-1537.500,397.760,216.780
963,47721.613000,-0.489,13.154,-213.498,77.663,-343.754,-368.700,-1602.500,516.760,140.780
964,47721.630000,9.300,27.320,-217.452,67.973,-340.756,-375.423,-1646.500,552.760,113.780
965,47721.650000,19.090,52.617,-240.185,37.636,-326.930,-381.794,-1721.500,452.760,17.780
966,47721.684000,20.069,77.913,-246.116,27.930,-329.740,-384.572,-1756.500,291.760,-25.220
967,47721.699000,9.300,84.996,-244.139,-2.405,-321.721,-387.982,-1794.500,241.760,6.780
968,47721.713000,13.216,93.091,-250.069,-8.242,-319.730,-390.835,-1810.500,250.760,20.780
969,47721.735000,27.901,108.269,-242.162,-41.573,-312.655,-390.253,-1795.500,104.760,67.780
970,47721.752000,6.363,112.316,-247.104,-56.224,-315.424,-389.991,-1764.500,-11.240,116.780
971,47721.775000,-5.384,117.375,-251.058,-76.938,-310.407,-382.739,-1728.500,77.760,184.780
972,47721.798000,11.258,132.553,-233.266,-97.608,-306.356,-377.456,-1692.500,142.760,273.780
973,47721.813000,5.384,140.648,-220.417,-116.217,-304.252,-377.129,-1682.500,138.760,310.780
974,47721.826000,4.405,147.731,-221.405,-140.872,-296.297,-369.811,-1675.500,153.760,335.780
975,47721.854000,13.216,163.921,-212.510,-150.761,-294.278,-364.716,-1682.500,93.760,358.780
976,47721.876000,10.279,171.004,-201.637,-176.368,-289.216,-357.378,-1713.500,-7.240,376.780
977,47721.894000,8.321,183.146,-195.707,-188.195,-292.986,-350.273,-1741.500,-47.240,357.780
978,47721.916000,9.300,203.383,-185.822,-216.884,-288.874,-334.019,-1786.500,-90.240,372.780
979,47721.939000,-23.006,205.407,-200.649,-239.615,-282.875,-323.779,-1817.500,118.760,343.780
980,47721.956000,-17.132,216.538,-197.683,-254.494,-274.042,-316.635,-1798.500,320.760,303.780
981,47722.1000,11.258,227.668,-185.822,-275.277,-270.964,-304.458,-1840.500,295.760,240.780
982,47722.20000,11.258,244.870,-184.834,-282.300,-268.976,-295.476,-1855.500,162.760,213.780
983,47722.20000,4.405,251.953,-184.834,-303.108,-268.804,-280.341,-1850.500,86.760,201.780
984,47722.37000,15.174,256.000,-177.915,-316.150,-259.995,-266.338,-1854.500,-77.240,191.780
985,47722.57000,23.985,272.190,-177.915,-332.133,-265.678,-244.391,-1836.500,-334.240,172.780
986,47722.80000,3.426,275.225,-190.764,-335.268,-266.631,-232.521,-1775.500,-434.240,184.780
987,47722.98000,-24.964,270.166,-193.730,-357.185,-261.618,-212.450,-1684.500,-184.240,198.780
988,47722.120000,-35.732,279.273,-190.764,-371.266,-253.771,-194.490,-1550.500,112.760,218.780
989,47722.141000,0.489,292.427,-189.776,-372.417,-255.708,-183.638,-1465.500,-10.240,180.780
990,47722.154000,3.426,299.510,-185.822,-379.500,-258.563,-168.743,-1424.500,-156.240,157.780
991,47722.181000,-15.174,280.285,-181.869,-384.583,-254.657,-159.797,-1323.500,-260.240,172.780
992,47722.199000,5.384,280.285,-180.880,-399.590,-252.607,-141.814,-1210.500,-120.240,204.780
993,47722.221000,-11.258,283.320,-171.985,-393.858,-250.732,-135.026,-1108.500,-67.240,194.780
994,47722.249000,-16.153,284.332,-156.170,-402.934,-245.828,-122.074,-1015.500,264.760,222.780
995,47722.276000,16.153,290.403,-151.228,-403.117,-239.063,-115.187,-943.500,717.760,247.780
996,47722.295000,34.753,283.320,-157.158,-407.057,-238.061,-114.134,-877.500,826.760,237.780
997,47722.314000,30.837,266.119,-144.309,-419.919,-228.274,-110.965,-804.500,803.760,207.780
998,47722.338000,57.270,243.858,-142.332,-412.160,-228.349,-107.164,-701.500,541.760,136.780
999,47722.368000,58.249,235.763,-155.181,-418.187,-228.304,-98.197,-668.500,268.760,76.780
1000,47722.371000,33.774,237.787,-164.077,-423.123,-227.294,-96.142,-586.500,-234.240,-14.220
