Shimmer,Shimmer,Shimmer,Shimmer,Shimmer,Shimmer,Shimmer,Shimmer,Shimmer,Shimmer,Shimmer,Shimmer,Shimmer,Shimmer,Shimmer,Shimmer,Shimmer,Shimmer,Shimmer,Shimmer
Timestamp,Timestamp,Wide Range Accelerometer X,Wide Range Accelerometer X,Wide Range Accelerometer Y,Wide Range Accelerometer Y,Wide Range Accelerometer Z,Wide Range Accelerometer Z,Gyroscope X,Gyroscope X,Gyroscope Y,Gyroscope Y,Gyroscope Z,Gyroscope Z,Magnetometer X,Magnetometer X,Magnetometer Y,Magnetometer Y,Magnetometer Z,Magnetometer Z
RAW,CAL,RAW,CAL,RAW,CAL,RAW,CAL,RAW,CAL,RAW,CAL,RAW,CAL,RAW,CAL,RAW,CAL,RAW,CAL
no units,mSecs,no units,m/(sec^2),no units,m/(sec^2),no units,m/(sec^2),no units,deg/sec,no units,deg/sec,no units,deg/sec,no units,local,no units,local,no units,local
11405517,5742.1875,-3072,1.8835070509,-512,-0.3139178418,-16000,9.8099325567,12,2.9268292683,-48,-0.7317073171,14,-0.8536585366,0,0,-37,-0.1608695652,141,-0.687804878
11406157,5761.71875,-3072,1.8835070509,-624,-0.3825873697,-15968,9.7903126916,12,2.9268292683,-48,-0.7317073171,14,-0.8536585366,0,0,-38,-0.1652173913,141,-0.687804878
11406797,5781.25,-3072,1.8835070509,-544,-0.3335377069,-16016,9.8197424893,-11,3.2926829268,-54,0.6707317073,6,-0.3658536585,0,0,-37,-0.1608695652,139,-0.6780487805
11407437,5800.78125,-2976,1.8246474555,-480,-0.2942979767,-15920,9.7608828939,-8,3.4146341463,-56,0.487804878,17,-1.0365853659,0,0,-40,-0.1739130435,141,-0.687804878
11408077,5820.3125,-2976,1.8246474555,-464,-0.2844880441,-15952,9.780502759,-8,3.4146341463,-56,0.487804878,17,-1.0365853659,-1,0.0043478261,-36,-0.1565217391,141,-0.687804878
11408717,5839.84375,-3088,1.8933169834,-512,-0.3139178418,-15984,9.8001226242,36,3.2926829268,-54,-2.1951219512,32,-1.9512195122,0,0,-40,-0.1739130435,140,-0.6829268293
11409357,5859.375,-3184,1.9521765788,-464,-0.2844880441,-16000,9.8099325567,36,3.2926829268,-54,-2.1951219512,32,-1.9512195122,0,0,-43,-0.1869565217,142,-0.6926829268
11409997,5878.90625,-3152,1.9325567137,-352,-0.2158185162,-16032,9.8295524218,-11,3.5365853659,-58,0.6707317073,18,-1.0975609756,-2,0.0086956522,-33,-0.1434782609,139,-0.6780487805
11410637,5898.4375,-2928,1.7952176579,-480,-0.2942979767,-15952,9.780502759,1,4.0853658537,-67,-0.0609756098,28,-1.7073170732,-1,0.0043478261,-39,-0.1695652174,139,-0.6780487805
11411277,5917.96875,-2912,1.7854077253,-464,-0.2844880441,-15840,9.7118332311,1,4.0853658537,-67,-0.0609756098,28,-1.7073170732,-2,0.0086956522,-36,-0.1565217391,139,-0.6780487805
11411917,5937.5,-2944,1.8050275904,-416,-0.2550582465,-15904,9.7510729614,30,4.0243902439,-66,-1.8292682927,32,-1.9512195122,3,-0.0130434783,-43,-0.1869565217,142,-0.6926829268
11412557,5957.03125,-3040,1.8638871858,-480,-0.2942979767,-15920,9.7608828939,21,3.9634146341,-65,-1.2804878049,36,-2.1951219512,-1,0.0043478261,-34,-0.147826087,138,-0.6731707317
11413197,5976.5625,-3104,1.903126916,-448,-0.2746781116,-15856,9.7216431637,21,3.9634146341,-65,-1.2804878049,36,-2.1951219512,-1,0.0043478261,-35,-0.152173913,140,-0.6829268293
11413837,5996.09375,-3088,1.8933169834,-496,-0.3041079093,-15648,9.5941140405,16,4.3292682927,-71,-0.9756097561,33,-2.012195122,-1,0.0043478261,-37,-0.1608695652,140,-0.6829268293
11414477,6015.625,-2944,1.8050275904,-400,-0.2452483139,-15680,9.6137339056,16,4.3292682927,-71,-0.9756097561,33,-2.012195122,-1,0.0043478261,-34,-0.147826087,138,-0.6731707317
11415117,6035.15625,-2912,1.7854077253,-496,-0.3041079093,-15744,9.6529736358,20,4.1463414634,-68,-1.2195121951,30,-1.8292682927,0,0,-34,-0.147826087,138,-0.6731707317
11415757,6054.6875,-2784,1.7069282649,-448,-0.2746781116,-15552,9.5352544451,46,4.0243902439,-66,-2.8048780488,21,-1.2804878049,3,-0.0130434783,-41,-0.1782608696,140,-0.6829268293
11416397,6074.21875,-2784,1.7069282649,-448,-0.2746781116,-15520,9.51563458,46,4.0243902439,-66,-2.8048780488,21,-1.2804878049,-1,0.0043478261,-35,-0.152173913,139,-0.6780487805
11417037,6093.75,-2848,1.7461679951,-400,-0.2452483139,-15520,9.51563458,54,2.987804878,-49,-3.2926829268,21,-1.2804878049,0,0,-38,-0.1652173913,138,-0.6731707317
11417677,6113.28125,-2928,1.7952176579,-288,-0.176578786,-15504,9.5058246475,54,2.987804878,-49,-3.2926829268,21,-1.2804878049,1,-0.0043478261,-45,-0.1956521739,142,-0.6926829268
11418317,6132.8125,-3088,1.8933169834,-384,-0.2354383814,-15488,9.4960147149,67,1.7682926829,-29,-4.0853658537,30,-1.8292682927,3,-0.0130434783,-42,-0.1826086957,140,-0.6829268293
11418957,6152.34375,-3168,1.9423666462,-432,-0.264868179,-15408,9.4469650521,16,1.3414634146,-22,-0.9756097561,19,-1.1585365854,-1,0.0043478261,-34,-0.147826087,139,-0.6780487805
11419597,6171.875,-2880,1.7657878602,-448,-0.2746781116,-15392,9.4371551196,16,1.3414634146,-22,-0.9756097561,19,-1.1585365854,-1,0.0043478261,-37,-0.1608695652,140,-0.6829268293
11420237,6191.40625,-2912,1.7854077253,-480,-0.2942979767,-15568,9.5450643777,70,0.9146341463,-15,-4.2682926829,21,-1.2804878049,0,0,-35,-0.152173913,140,-0.6829268293
11420877,6210.9375,-3136,1.9227467811,-480,-0.2942979767,-15632,9.5843041079,70,0.9146341463,-15,-4.2682926829,21,-1.2804878049,0,0,-35,-0.152173913,139,-0.6780487805
11421517,6230.46875,-3184,1.9521765788,-432,-0.264868179,-15568,9.5450643777,31,1.0365853659,-17,-1.8902439024,2,-0.1219512195,1,-0.0043478261,-44,-0.1913043478,141,-0.687804878
11422157,6250,-3184,1.9521765788,-496,-0.3041079093,-15632,9.5843041079,13,0.7317073171,-12,-0.7926829268,-6,0.3658536585,2,-0.0086956522,-41,-0.1782608696,142,-0.6926829268
11422797,6269.53125,-3168,1.9423666462,-464,-0.2844880441,-15696,9.6235438381,13,0.7317073171,-12,-0.7926829268,-6,0.3658536585,3,-0.0130434783,-40,-0.1739130435,140,-0.6829268293
11423437,6289.0625,-3264,2.0012262416,-464,-0.2844880441,-15680,9.6137339056,41,0.5487804878,-9,-2.5,-2,0.1219512195,-1,0.0043478261,-34,-0.147826087,137,-0.6682926829
11424077,6308.59375,-3392,2.079705702,-416,-0.2550582465,-15856,9.7216431637,19,0.9146341463,-15,-1.1585365854,-4,0.243902439,1,-0.0043478261,-38,-0.1652173913,138,-0.6731707317
11424717,6328.125,-3360,2.0600858369,-576,-0.353157572,-15872,9.7314530963,19,0.9146341463,-15,-1.1585365854,-4,0.243902439,-1,0.0043478261,-38,-0.1652173913,137,-0.6682926829
11425357,6347.65625,-3504,2.1483752299,-528,-0.3237277744,-15696,9.6235438381,25,1.2195121951,-20,-1.5243902439,-6,0.3658536585,1,-0.0043478261,-36,-0.1565217391,139,-0.6780487805
11425997,6367.1875,-3568,2.1876149601,-576,-0.353157572,-15824,9.7020232986,25,1.2195121951,-20,-1.5243902439,-6,0.3658536585,0,0,-37,-0.1608695652,138,-0.6731707317
11426637,6386.71875,-3520,2.1581851625,-720,-0.4414469651,-15888,9.7412630288,29,1.2195121951,-20,-1.7682926829,3,-0.1829268293,2,-0.0086956522,-35,-0.152173913,139,-0.6780487805
11427277,6406.25,-3600,2.2072348253,-656,-0.4022072348,-15968,9.7903126916,33,1.6463414634,-27,-2.012195122,11,-0.6707317073,0,0,-35,-0.152173913,139,-0.6780487805
11427917,6425.78125,-3584,2.1974248927,-656,-0.4022072348,-15936,9.7706928265,33,1.6463414634,-27,-2.012195122,11,-0.6707317073,-1,0.0043478261,-36,-0.1565217391,138,-0.6731707317
11428557,6445.3125,-3600,2.2072348253,-592,-0.3629675046,-15952,9.780502759,30,2.012195122,-33,-1.8292682927,15,-0.9146341463,0,0,-40,-0.1739130435,140,-0.6829268293
11429197,6464.84375,-3520,2.1581851625,-672,-0.4120171674,-15856,9.7216431637,30,2.012195122,-33,-1.8292682927,15,-0.9146341463,3,-0.0130434783,-43,-0.1869565217,141,-0.687804878
11429837,6484.375,-3456,2.1189454323,-640,-0.3923973023,-15872,9.7314530963,4,2.743902439,-45,-0.243902439,15,-0.9146341463,-1,0.0043478261,-34,-0.147826087,136,-0.6634146341
11430477,6503.90625,-3360,2.0600858369,-624,-0.3825873697,-15872,9.7314530963,44,2.987804878,-49,-2.6829268293,18,-1.0975609756,2,-0.0086956522,-35,-0.152173913,137,-0.6682926829
11431117,6523.4375,-3488,2.1385652974,-656,-0.4022072348,-15792,9.6824034335,44,2.987804878,-49,-2.6829268293,18,-1.0975609756,0,0,-37,-0.1608695652,138,-0.6731707317
11431757,6542.96875,-3552,2.1778050276,-624,-0.3825873697,-15760,9.6627835684,16,3.0487804878,-50,-0.9756097561,17,-1.0365853659,0,0,-36,-0.1565217391,139,-0.6780487805
11432397,6562.5,-3312,2.0306560392,-592,-0.3629675046,-15712,9.6333537707,17,2.743902439,-45,-1.0365853659,17,-1.0365853659,-1,0.0043478261,-35,-0.152173913,137,-0.6682926829
11433037,6582.03125,-3232,1.9816063765,-672,-0.4120171674,-15744,9.6529736358,17,2.743902439,-45,-1.0365853659,17,-1.0365853659,1,-0.0043478261,-35,-0.152173913,137,-0.6682926829
11433677,6601.5625,-3424,2.0993255671,-608,-0.3727774372,-15776,9.6725935009,27,2.743902439,-45,-1.6463414634,18,-1.0975609756,0,0,-38,-0.1652173913,138,-0.6731707317
11434317,6621.09375,-3408,2.0895156346,-512,-0.3139178418,-15712,9.6333537707,27,2.743902439,-45,-1.6463414634,18,-1.0975609756,1,-0.0043478261,-35,-0.152173913,138,-0.6731707317
11434957,6640.625,-3376,2.0698957695,-592,-0.3629675046,-15648,9.5941140405,10,2.987804878,-49,-0.6097560976,14,-0.8536585366,1,-0.0043478261,-35,-0.152173913,137,-0.6682926829
11435597,6660.15625,-3376,2.0698957695,-576,-0.353157572,-15776,9.6725935009,10,2.987804878,-49,-0.6097560976,12,-0.7317073171,1,-0.0043478261,-40,-0.1739130435,140,-0.6829268293
11436237,6679.6875,-3344,2.0502759044,-528,-0.3237277744,-15840,9.7118332311,10,2.987804878,-49,-0.6097560976,12,-0.7317073171,1,-0.0043478261,-36,-0.1565217391,139,-0.6780487805
11436877,6699.21875,-3312,2.0306560392,-560,-0.3433476395,-15808,9.692213366,14,3.3536585366,-55,-0.8536585366,6,-0.3658536585,-2,0.0086956522,-35,-0.152173913,136,-0.6634146341
11437517,6718.75,-3424,2.0993255671,-560,-0.3433476395,-15776,9.6725935009,14,3.3536585366,-55,-0.8536585366,6,-0.3658536585,1,-0.0043478261,-36,-0.1565217391,139,-0.6780487805
11438157,6738.28125,-3536,2.167995095,-480,-0.2942979767,-15792,9.6824034335,17,3.1707317073,-52,-1.0365853659,7,-0.4268292683,1,-0.0043478261,-38,-0.1652173913,138,-0.6731707317
11438797,6757.8125,-3456,2.1189454323,-544,-0.3335377069,-15760,9.6627835684,-4,3.1707317073,-52,0.243902439,3,-0.1829268293,0,0,-35,-0.152173913,139,-0.6780487805
11439437,6777.34375,-3344,2.0502759044,-608,-0.3727774372,-15648,9.5941140405,-4,3.1707317073,-52,0.243902439,3,-0.1829268293,1,-0.0043478261,-39,-0.1695652174,137,-0.6682926829
11440077,6796.875,-3408,2.0895156346,-576,-0.353157572,-15680,9.6137339056,6,3.1707317073,-52,-0.3658536585,9,-0.5487804878,2,-0.0086956522,-38,-0.1652173913,138,-0.6731707317
11440717,6816.40625,-3376,2.0698957695,-576,-0.353157572,-15712,9.6333537707,6,3.1707317073,-52,-0.3658536585,9,-0.5487804878,2,-0.0086956522,-35,-0.152173913,138,-0.6731707317
11441357,6835.9375,-3360,2.0600858369,-560,-0.3433476395,-15680,9.6137339056,24,3.2317073171,-53,-1.4634146341,3,-0.1829268293,4,-0.0173913043,-40,-0.1739130435,138,-0.6731707317
11441997,6855.46875,-3472,2.1287553648,-608,-0.3727774372,-15728,9.6431637032,35,2.987804878,-49,-2.1341463415,0,0,4,-0.0173913043,-45,-0.1956521739,139,-0.6780487805
11442637,6875,-3600,2.2072348253,-576,-0.353157572,-15728,9.6431637032,35,2.987804878,-49,-2.1341463415,0,0,0,0,-37,-0.1608695652,138,-0.6731707317
11443277,6894.53125,-3536,2.167995095,-640,-0.3923973023,-15728,9.6431637032,-6,3.2317073171,-53,0.3658536585,-4,0.243902439,1,-0.0043478261,-38,-0.1652173913,137,-0.6682926829
11443917,6914.0625,-3488,2.1385652974,-592,-0.3629675046,-15760,9.6627835684,7,3.4146341463,-56,-0.4268292683,0,0,1,-0.0043478261,-35,-0.152173913,136,-0.6634146341
11444557,6933.59375,-3392,2.079705702,-576,-0.353157572,-15776,9.6725935009,7,3.4146341463,-56,-0.4268292683,0,0,2,-0.0086956522,-38,-0.1652173913,137,-0.6682926829
11445197,6953.125,-3536,2.167995095,-528,-0.3237277744,-15680,9.6137339056,9,3.1097560976,-51,-0.5487804878,-1,0.0609756098,0,0,-35,-0.152173913,137,-0.6682926829
11445837,6972.65625,-3504,2.1483752299,-544,-0.3335377069,-15680,9.6137339056,9,3.1097560976,-51,-0.5487804878,-1,0.0609756098,0,0,-35,-0.152173913,137,-0.6682926829
11446477,6992.1875,-3440,2.1091354997,-560,-0.3433476395,-15680,9.6137339056,7,3.1707317073,-52,-0.4268292683,-3,0.1829268293,0,0,-38,-0.1652173913,138,-0.6731707317
11447117,7011.71875,-3520,2.1581851625,-560,-0.3433476395,-15664,9.603923973,15,2.9268292683,-48,-0.9146341463,-2,0.1219512195,1,-0.0043478261,-35,-0.152173913,136,-0.6634146341
11447757,7031.25,-3568,2.1876149601,-496,-0.3041079093,-15744,9.6529736358,15,2.9268292683,-48,-0.9146341463,-2,0.1219512195,3,-0.0130434783,-40,-0.1739130435,139,-0.6780487805
11448397,7050.78125,-3440,2.1091354997,-544,-0.3335377069,-15696,9.6235438381,14,2.8658536585,-47,-0.8536585366,0,0,2,-0.0086956522,-43,-0.1869565217,139,-0.6780487805
11449037,7070.3125,-3504,2.1483752299,-560,-0.3433476395,-15776,9.6725935009,14,2.8658536585,-47,-0.8536585366,0,0,1,-0.0043478261,-40,-0.1739130435,139,-0.6780487805
11449677,7089.84375,-3616,2.2170447578,-560,-0.3433476395,-15744,9.6529736358,22,3.1097560976,-51,-1.3414634146,-2,0.1219512195,1,-0.0043478261,-38,-0.1652173913,137,-0.6682926829
11450317,7109.375,-3488,2.1385652974,-448,-0.2746781116,-15728,9.6431637032,-13,3.4146341463,-56,0.7926829268,-6,0.3658536585,5,-0.0217391304,-40,-0.1739130435,137,-0.6682926829
11450957,7128.90625,-3472,2.1287553648,-464,-0.2844880441,-15728,9.6431637032,-13,3.4146341463,-56,0.7926829268,-6,0.3658536585,2,-0.0086956522,-36,-0.1565217391,138,-0.6731707317
11451597,7148.4375,-3488,2.1385652974,-544,-0.3335377069,-15728,9.6431637032,23,3.4146341463,-56,-1.4024390244,-5,0.3048780488,1,-0.0043478261,-39,-0.1695652174,137,-0.6682926829
11452237,7167.96875,-3552,2.1778050276,-592,-0.3629675046,-15712,9.6333537707,23,3.4146341463,-56,-1.4024390244,-5,0.3048780488,2,-0.0086956522,-41,-0.1782608696,137,-0.6682926829
11452877,7187.5,-3584,2.1974248927,-576,-0.353157572,-15632,9.5843041079,28,3.2926829268,-54,-1.7073170732,1,-0.0609756098,2,-0.0086956522,-37,-0.1608695652,138,-0.6731707317
11453517,7207.03125,-3664,2.2464745555,-576,-0.353157572,-15776,9.6725935009,9,3.2926829268,-54,-0.5487804878,-4,0.243902439,1,-0.0043478261,-39,-0.1695652174,137,-0.6682926829
11454157,7226.5625,-3584,2.1974248927,-560,-0.3433476395,-15792,9.6824034335,9,3.2926829268,-54,-0.5487804878,-4,0.243902439,0,0,-38,-0.1652173913,138,-0.6731707317
11454797,7246.09375,-3536,2.167995095,-544,-0.3335377069,-15680,9.6137339056,9,3.3536585366,-55,-0.5487804878,2,-0.1219512195,1,-0.0043478261,-39,-0.1695652174,138,-0.6731707317
11455437,7265.625,-3536,2.167995095,-560,-0.3433476395,-15616,9.5744941754,12,2.987804878,-49,-0.7317073171,1,-0.0609756098,2,-0.0086956522,-40,-0.1739130435,139,-0.6780487805
11456077,7285.15625,-3568,2.1876149601,-432,-0.264868179,-15664,9.603923973,12,2.987804878,-49,-0.7317073171,1,-0.0609756098,3,-0.0130434783,-36,-0.1565217391,138,-0.6731707317
11456717,7304.6875,-3536,2.167995095,-528,-0.3237277744,-15728,9.6431637032,13,3.1097560976,-51,-0.7926829268,1,-0.0609756098,1,-0.0043478261,-34,-0.147826087,136,-0.6634146341
11457357,7324.21875,-3472,2.1287553648,-560,-0.3433476395,-15600,9.5646842428,13,3.1097560976,-51,-0.7926829268,1,-0.0609756098,2,-0.0086956522,-37,-0.1608695652,136,-0.6634146341
11457997,7343.75,-3632,2.2268546904,-528,-0.3237277744,-15632,9.5843041079,23,3.3536585366,-55,-1.4024390244,6,-0.3658536585,2,-0.0086956522,-37,-0.1608695652,136,-0.6634146341
11458637,7363.28125,-3520,2.1581851625,-432,-0.264868179,-15776,9.6725935009,33,3.0487804878,-50,-2.012195122,9,-0.5487804878,0,0,-35,-0.152173913,136,-0.6634146341
11459277,7382.8125,-3600,2.2072348253,-576,-0.353157572,-15680,9.6137339056,33,3.0487804878,-50,-2.012195122,9,-0.5487804878,4,-0.0173913043,-43,-0.1869565217,138,-0.6731707317
11459917,7402.34375,-3600,2.2072348253,-576,-0.353157572,-15728,9.6431637032,36,2.9268292683,-48,-2.1951219512,3,-0.1829268293,2,-0.0086956522,-37,-0.1608695652,135,-0.6585365854
11460557,7421.875,-3600,2.2072348253,-640,-0.3923973023,-15648,9.5941140405,36,2.9268292683,-48,-2.1951219512,3,-0.1829268293,2,-0.0086956522,-36,-0.1565217391,137,-0.6682926829
11461197,7441.40625,-3584,2.1974248927,-544,-0.3335377069,-15712,9.6333537707,2,2.8048780488,-46,-0.1219512195,4,-0.243902439,2,-0.0086956522,-35,-0.152173913,136,-0.6634146341
11461837,7460.9375,-3504,2.1483752299,-528,-0.3237277744,-15792,9.6824034335,-1,2.8658536585,-47,0.0609756098,5,-0.3048780488,5,-0.0217391304,-44,-0.1913043478,139,-0.6780487805
11462477,7480.46875,-3504,2.1483752299,-624,-0.3825873697,-15760,9.6627835684,-1,2.8658536585,-47,0.0609756098,5,-0.3048780488,1,-0.0043478261,-39,-0.1695652174,137,-0.6682926829
11463117,7500,-3568,2.1876149601,-544,-0.3335377069,-15728,9.6431637032,17,3.0487804878,-50,-1.0365853659,5,-0.3048780488,1,-0.0043478261,-38,-0.1652173913,137,-0.6682926829
11463757,7519.53125,-3552,2.1778050276,-544,-0.3335377069,-15696,9.6235438381,-10,3.3536585366,-55,0.6097560976,-5,0.3048780488,2,-0.0086956522,-34,-0.147826087,136,-0.6634146341
11464397,7539.0625,-3488,2.1385652974,-560,-0.3433476395,-15584,9.5548743102,-10,3.3536585366,-55,0.6097560976,-5,0.3048780488,1,-0.0043478261,-36,-0.1565217391,136,-0.6634146341
11465037,7558.59375,-3584,2.1974248927,-576,-0.353157572,-15584,9.5548743102,8,3.3536585366,-55,-0.487804878,-7,0.4268292683,2,-0.0086956522,-38,-0.1652173913,137,-0.6682926829
11465677,7578.125,-3632,2.2268546904,-576,-0.353157572,-15520,9.51563458,8,3.3536585366,-55,-0.487804878,-7,0.4268292683,2,-0.0086956522,-36,-0.1565217391,137,-0.6682926829
11466317,7597.65625,-3600,2.2072348253,-576,-0.353157572,-15600,9.5646842428,11,3.2317073171,-53,-0.6707317073,-6,0.3658536585,3,-0.0130434783,-39,-0.1695652174,138,-0.6731707317
11466957,7617.1875,-3568,2.1876149601,-496,-0.3041079093,-15632,9.5843041079,9,3.3536585366,-55,-0.5487804878,-11,0.6707317073,2,-0.0086956522,-35,-0.152173913,135,-0.6585365854
11467597,7636.71875,-3568,2.1876149601,-496,-0.3041079093,-15584,9.5548743102,9,3.3536585366,-55,-0.5487804878,-11,0.6707317073,1,-0.0043478261,-42,-0.1826086957,138,-0.6731707317
11468237,7656.25,-3616,2.2170447578,-464,-0.2844880441,-15552,9.5352544451,4,3.0487804878,-50,-0.243902439,-15,0.9146341463,1,-0.0043478261,-34,-0.147826087,138,-0.6731707317
11468877,7675.78125,-3680,2.256284488,-480,-0.2942979767,-15664,9.603923973,4,3.0487804878,-50,-0.243902439,-15,0.9146341463,1,-0.0043478261,-38,-0.1652173913,137,-0.6682926829
11469517,7695.3125,-3584,2.1974248927,-416,-0.2550582465,-15568,9.5450643777,-14,2.743902439,-45,0.8536585366,-16,0.9756097561,3,-0.0130434783,-39,-0.1695652174,137,-0.6682926829
11470157,7714.84375,-3584,2.1974248927,-512,-0.3139178418,-15584,9.5548743102,19,2.1951219512,-36,-1.1585365854,-10,0.6097560976,4,-0.0173913043,-39,-0.1695652174,136,-0.6634146341
11470797,7734.375,-3728,2.2857142857,-544,-0.3335377069,-15632,9.5843041079,19,2.1951219512,-36,-1.1585365854,-10,0.6097560976,0,0,-36,-0.1565217391,135,-0.6585365854
11471437,7753.90625,-3712,2.2759043532,-496,-0.3041079093,-15760,9.6627835684,6,2.1951219512,-36,-0.3658536585,-5,0.3048780488,5,-0.0217391304,-42,-0.1826086957,139,-0.6780487805
11472077,7773.4375,-3680,2.256284488,-528,-0.3237277744,-15664,9.603923973,6,2.1951219512,-36,-0.3658536585,-5,0.3048780488,2,-0.0086956522,-38,-0.1652173913,137,-0.6682926829
11472717,7792.96875,-3744,2.2955242183,-544,-0.3335377069,-15760,9.6627835684,6,2.4390243902,-40,-0.3658536585,-2,0.1219512195,0,0,-36,-0.1565217391,136,-0.6634146341
11473357,7812.5,-3744,2.2955242183,-592,-0.3629675046,-15728,9.6431637032,0,2.5,-41,0,-4,0.243902439,5,-0.0217391304,-44,-0.1913043478,138,-0.6731707317
11473997,7832.03125,-3696,2.2660944206,-656,-0.4022072348,-15744,9.6529736358,0,2.5,-41,0,-4,0.243902439,2,-0.0086956522,-38,-0.1652173913,137,-0.6682926829
11474637,7851.5625,-3712,2.2759043532,-624,-0.3825873697,-15728,9.6431637032,3,2.9268292683,-48,-0.1829268293,-5,0.3048780488,4,-0.0173913043,-44,-0.1913043478,138,-0.6731707317
11475277,7871.09375,-3664,2.2464745555,-608,-0.3727774372,-15744,9.6529736358,13,3.0487804878,-50,-0.7926829268,-1,0.0609756098,5,-0.0217391304,-45,-0.1956521739,140,-0.6829268293
11475917,7890.625,-3680,2.256284488,-608,-0.3727774372,-15696,9.6235438381,13,3.0487804878,-50,-0.7926829268,-1,0.0609756098,3,-0.0130434783,-35,-0.152173913,135,-0.6585365854
11476557,7910.15625,-3744,2.2955242183,-576,-0.353157572,-15696,9.6235438381,3,2.987804878,-49,-0.1829268293,-2,0.1219512195,3,-0.0130434783,-36,-0.1565217391,137,-0.6682926829
11477197,7929.6875,-3648,2.2366646229,-592,-0.3629675046,-15616,9.5744941754,3,2.987804878,-49,-0.1829268293,-2,0.1219512195,1,-0.0043478261,-37,-0.1608695652,137,-0.6682926829
11477837,7949.21875,-3616,2.2170447578,-592,-0.3629675046,-15568,9.5450643777,6,3.0487804878,-50,-0.3658536585,2,-0.1219512195,2,-0.0086956522,-37,-0.1608695652,136,-0.6634146341
11478477,7968.75,-3696,2.2660944206,-528,-0.3237277744,-15552,9.5352544451,23,2.4390243902,-40,-1.4024390244,7,-0.4268292683,3,-0.0130434783,-37,-0.1608695652,136,-0.6634146341
11479117,7988.28125,-3648,2.2366646229,-592,-0.3629675046,-15584,9.5548743102,23,2.4390243902,-40,-1.4024390244,7,-0.4268292683,3,-0.0130434783,-43,-0.1869565217,139,-0.6780487805
11649357,13183.59375,2944,-1.8050275904,-1856,-1.1379521766,-9024,5.532801962,754,-47.3780487805,777,-45.9756097561,-625,38.1097560976,9,-0.0391304348,-34,-0.147826087,129,-0.6292682927
11649997,13203.125,2304,-1.4126302882,-2656,-1.6284488044,-10400,6.3764561619,401,-58.2317073171,955,-24.4512195122,-867,52.8658536585,11,-0.047826087,-30,-0.1304347826,126,-0.6146341463
11650637,13222.65625,2000,-1.2262415696,-3248,-1.991416309,-11712,7.1808706315,401,-58.2317073171,955,-24.4512195122,-867,52.8658536585,10,-0.0434782609,-27,-0.1173913043,125,-0.6097560976
11651277,13242.1875,2624,-1.6088289393,-4352,-2.6683016554,-12864,7.8871857756,158,-59.2682926829,972,-9.6341463415,-1098,66.9512195122,8,-0.0347826087,-24,-0.1043478261,125,-0.6097560976
11651917,13261.71875,2208,-1.3537706928,-5536,-3.3942366646,-13760,8.4365419988,289,-63.1097560976,1035,-17.6219512195,-1348,82.1951219512,9,-0.0391304348,-24,-0.1043478261,125,-0.6097560976
11652557,13281.25,1104,-0.6768853464,-6352,-3.894543225,-14464,8.8681790313,289,-63.1097560976,1035,-17.6219512195,-1348,82.1951219512,9,-0.0391304348,-18,-0.0782608696,123,-0.6
11653197,13300.78125,992,-0.6082158185,-7456,-4.5714285714,-15424,9.4567749847,250,-58.9634146341,967,-15.243902439,-1574,95.9756097561,7,-0.0304347826,-13,-0.0565217391,124,-0.6048780488
11653837,13320.3125,336,-0.2060085837,-8480,-5.1992642551,-15776,9.6725935009,250,-58.9634146341,967,-15.243902439,-1574,95.9756097561,9,-0.0391304348,-12,-0.052173913,122,-0.5951219512
11654477,13339.84375,-1680,1.0300429185,-9296,-5.6995708155,-16128,9.8884120172,343,-57.012195122,935,-20.9146341463,-1720,104.8780487805,5,-0.0217391304,-2,-0.0086956522,120,-0.5853658537
11655117,13359.375,-1184,0.7259350092,-10480,-6.4255058246,-16416,10.0649908032,-106,-50.4268292683,827,6.4634146341,-1929,117.6219512195,3,-0.0130434783,0,0,118,-0.5756097561
11655757,13378.90625,432,-0.264868179,-11376,-6.9748620478,-16096,9.8687921521,-106,-50.4268292683,827,6.4634146341,-1929,117.6219512195,0,0,4,0.0173913043,119,-0.5804878049
11656397,13398.4375,-656,0.4022072348,-11856,-7.2691600245,-16208,9.93746168,342,-47.3780487805,777,-20.8536585366,-2002,122.0731707317,-1,0.0043478261,7,0.0304347826,116,-0.5658536585
11657037,13417.96875,-2720,1.6676885346,-12224,-7.4947884733,-16176,9.9178418148,342,-47.3780487805,777,-20.8536585366,-2002,122.0731707317,-5,0.0217391304,16,0.0695652174,113,-0.5512195122
11657677,13437.5,-1616,0.9908031882,-13136,-8.0539546291,-15072,9.2409564684,5,-41.2804878049,677,-0.3048780488,-2143,130.6707317073,-5,0.0217391304,18,0.0782608696,114,-0.556097561
11658317,13457.03125,736,-0.4512568976,-14176,-8.6916002452,-13904,8.5248313918,167,-36.4024390244,597,-10.1829268293,-2243,136.7682926829,-7,0.0304347826,19,0.0826086957,115,-0.5609756098
11658957,13476.5625,-240,0.1471489884,-13840,-8.4855916616,-14480,8.8779889638,167,-36.4024390244,597,-10.1829268293,-2243,136.7682926829,-11,0.047826087,26,0.1130434783,112,-0.5463414634
11659597,13496.09375,-1952,1.1968117719,-13872,-8.5052115267,-14144,8.6719803801,608,-35.487804878,582,-37.0731707317,-2342,142.8048780488,-14,0.0608695652,30,0.1304347826,109,-0.5317073171
11660237,13515.625,-1808,1.1085223789,-14784,-9.0643776824,-13312,8.1618638872,343,-31.7073170732,520,-20.9146341463,-2475,150.9146341463,-17,0.0739130435,32,0.1391304348,109,-0.5317073171
11660877,13535.15625,-912,0.5591661557,-15392,-9.4371551196,-12480,7.6517473942,343,-31.7073170732,520,-20.9146341463,-2475,150.9146341463,-18,0.0782608696,34,0.147826087,108,-0.5268292683
11661517,13554.6875,-224,0.1373390558,-15792,-9.6824034335,-11952,7.3280196199,373,-29.756097561,488,-22.743902439,-2588,157.8048780488,-23,0.1,38,0.1652173913,104,-0.5073170732
11662157,13574.21875,-1616,0.9908031882,-16160,-9.9080318823,-12704,7.78908645,373,-29.756097561,488,-22.743902439,-2588,157.8048780488,-27,0.1173913043,40,0.1739130435,104,-0.5073170732
11662797,13593.75,-2480,1.5205395463,-16592,-10.1729000613,-13040,7.9950950337,378,-27.743902439,455,-23.0487804878,-2703,164.8170731707,-31,0.1347826087,43,0.1869565217,104,-0.5073170732
11663437,13613.28125,-2064,1.2654812998,-16960,-10.3985285101,-13696,8.3973022685,87,-22.6829268293,372,-5.3048780488,-2954,180.1219512195,-30,0.1304347826,41,0.1782608696,104,-0.5073170732
11664077,13632.8125,-1888,1.1575720417,-17552,-10.7614960147,-15488,9.4960147149,87,-22.6829268293,372,-5.3048780488,-2954,180.1219512195,-40,0.1739130435,43,0.1869565217,101,-0.4926829268
11664717,13652.34375,-3952,2.4230533415,-17856,-10.9478847333,-18592,11.3991416309,178,-15.7926829268,259,-10.8536585366,-3192,194.6341463415,-44,0.1913043478,49,0.2130434783,99,-0.4829268293
11665357,13671.875,-4736,2.9037400368,-18128,-11.1146535868,-20400,12.5076640098,178,-15.7926829268,259,-10.8536585366,-3192,194.6341463415,-53,0.2304347826,56,0.2434782609,98,-0.4780487805
11665997,13691.40625,-3312,2.0306560392,-18448,-11.3108522379,-22272,13.6554261189,-205,-1.7682926829,29,12.5,-3265,199.0853658537,-54,0.2347826087,51,0.2217391304,101,-0.4926829268
11666637,13710.9375,-1536,0.9417535254,-18016,-11.0459840589,-23568,14.450030656,233,21.0365853659,-345,-14.2073170732,-3106,189.3902439024,-62,0.2695652174,53,0.2304347826,101,-0.4926829268
11667277,13730.46875,-1712,1.0496627836,-17792,-10.9086450031,-23968,14.69527897,233,21.0365853659,-345,-14.2073170732,-3106,189.3902439024,-66,0.2869565217,55,0.2391304348,99,-0.4829268293
11667917,13750,-3040,1.8638871858,-16752,-10.2709993869,-24144,14.8031882281,469,46.2195121951,-758,-28.5975609756,-2765,168.5975609756,-71,0.3086956522,56,0.2434782609,101,-0.4926829268
11668557,13769.53125,-2288,1.4028203556,-15088,-9.250766401,-24432,14.9797670141,70,74.0243902439,-1214,-4.2682926829,-2466,150.3658536585,-74,0.3217391304,57,0.247826087,103,-0.5024390244
11669197,13789.0625,-288,0.176578786,-14480,-8.8779889638,-24368,14.9405272839,70,74.0243902439,-1214,-4.2682926829,-2466,150.3658536585,-81,0.352173913,58,0.252173913,106,-0.5170731707
11669837,13808.59375,784,-0.4806866953,-14048,-8.6131207848,-24000,14.7148988351,159,92.9268292683,-1524,-9.6951219512,-2118,129.1463414634,-81,0.352173913,51,0.2217391304,107,-0.5219512195
11670477,13828.125,848,-0.5199264255,-13760,-8.4365419988,-23072,14.1459227468,159,92.9268292683,-1524,-9.6951219512,-2118,129.1463414634,-87,0.3782608696,54,0.2347826087,111,-0.5414634146
11671117,13847.65625,1280,-0.7847946045,-13040,-7.9950950337,-21936,13.4494175353,77,110.9756097561,-1820,-4.6951219512,-1904,116.0975609756,-89,0.3869565217,53,0.2304347826,113,-0.5512195122
11671757,13867.1875,2368,-1.4518700184,-12384,-7.5928877989,-20672,12.6744328633,159,127.012195122,-2083,-9.6951219512,-1674,102.0731707317,-93,0.4043478261,49,0.2130434783,117,-0.5707317073
11672397,13886.71875,2416,-1.4812998161,-12208,-7.4849785408,-19392,11.8896382587,159,127.012195122,-2083,-9.6951219512,-1674,102.0731707317,-93,0.4043478261,46,0.2,121,-0.5902439024
11673037,13906.25,2384,-1.461679951,-11424,-7.0042918455,-17888,10.9675045984,307,141.5853658537,-2322,-18.7195121951,-1365,83.2317073171,-96,0.4173913043,44,0.1913043478,125,-0.6097560976
11673677,13925.78125,2368,-1.4518700184,-10528,-6.4549356223,-17008,10.4279583078,307,141.5853658537,-2322,-18.7195121951,-1365,83.2317073171,-96,0.4173913043,44,0.1913043478,128,-0.6243902439
11674317,13945.3125,2336,-1.4322501533,-9904,-6.0723482526,-15840,9.7118332311,248,148.7804878049,-2440,-15.1219512195,-1073,65.4268292683,-98,0.4260869565,40,0.1739130435,134,-0.6536585366
11674957,13964.84375,2288,-1.4028203556,-9200,-5.6407112201,-14208,8.7112201104,-26,151.8292682927,-2490,1.5853658537,-848,51.7073170732,-100,0.4347826087,39,0.1695652174,134,-0.6536585366
11675597,13984.375,2048,-1.2556713673,-7888,-4.8362967505,-12592,7.7204169221,-26,151.8292682927,-2490,1.5853658537,-848,51.7073170732,-102,0.4434782609,32,0.1391304348,142,-0.6926829268
11676237,14003.90625,2016,-1.2360515021,-6496,-3.982832618,-11696,7.171060699,-89,147.5609756098,-2420,5.4268292683,-610,37.1951219512,-104,0.452173913,34,0.147826087,143,-0.6975609756
11676877,14023.4375,1600,-0.9809932557,-5392,-3.3059472716,-10656,6.5334150828,-89,147.5609756098,-2420,5.4268292683,-610,37.1951219512,-101,0.4391304348,24,0.1043478261,149,-0.7268292683
11677517,14042.96875,1504,-0.9221336603,-4448,-2.7271612508,-9696,5.9448191294,-70,140.3658536585,-2302,4.2682926829,-329,20.0609756098,-102,0.4434782609,21,0.0913043478,151,-0.7365853659
11678157,14062.5,1248,-0.7651747394,-3280,-2.0110361741,-8960,5.4935622318,11,132.256097561,-2169,-0.6707317073,-39,2.3780487805,-102,0.4434782609,21,0.0913043478,155,-0.756097561
11678797,14082.03125,864,-0.5297363581,-2640,-1.6186388719,-8656,5.3071735132,11,132.256097561,-2169,-0.6707317073,-39,2.3780487805,-103,0.447826087,15,0.0652173913,156,-0.7609756098
11679437,14101.5625,752,-0.4610668302,-2208,-1.3537706928,-8624,5.2875536481,54,123.4146341463,-2024,-3.2926829268,234,-14.2682926829,-100,0.4347826087,9,0.0391304348,161,-0.7853658537
11680077,14121.09375,512,-0.3139178418,-1632,-1.0006131208,-8048,4.934396076,35,115.7926829268,-1899,-2.1341463415,439,-26.7682926829,-103,0.447826087,10,0.0434782609,162,-0.7902439024
11680717,14140.625,336,-0.2060085837,-784,-0.4806866953,-7520,4.6106683017,35,115.7926829268,-1899,-2.1341463415,439,-26.7682926829,-101,0.4391304348,7,0.0304347826,163,-0.7951219512
11681357,14160.15625,-80,0.0490496628,-48,-0.0294297977,-7040,4.316370325,-102,103.7195121951,-1701,6.2195121951,635,-38.7195121951,-101,0.4391304348,8,0.0347826087,163,-0.7951219512
11681997,14179.6875,-192,0.1177191907,544,0.3335377069,-6672,4.0907418761,-102,103.7195121951,-1701,6.2195121951,635,-38.7195121951,-100,0.4347826087,-3,-0.0130434783,167,-0.8146341463
11682637,14199.21875,144,-0.088289393,1216,0.7455548743,-6752,4.1397915389,-346,94.3902439024,-1548,21.0975609756,817,-49.8170731707,-104,0.452173913,0,0,166,-0.8097560976
11683277,14218.75,208,-0.1275291232,1952,1.1968117719,-6400,3.9239730227,-379,83.4146341463,-1368,23.1097560976,1038,-63.2926829268,-100,0.4347826087,-5,-0.0217391304,167,-0.8146341463
11683917,14238.28125,688,-0.4218270999,2608,1.5990190067,-6016,3.6885346413,-379,83.4146341463,-1368,23.1097560976,1038,-63.2926829268,-101,0.4391304348,-8,-0.0347826087,170,-0.8292682927
11684557,14257.8125,1424,-0.8730839975,2896,1.7755977928,-5952,3.6492949111,-389,72.0731707317,-1182,23.7195121951,1324,-80.7317073171,-103,0.447826087,-11,-0.047826087,171,-0.8341463415
11685197,14277.34375,1376,-0.8436541999,2464,1.5107296137,-5728,3.5119558553,-389,72.0731707317,-1182,23.7195121951,1324,-80.7317073171,-102,0.4434782609,-11,-0.047826087,170,-0.8292682927
11685837,14296.875,1216,-0.7455548743,2240,1.3733905579,-5120,3.1391784181,-336,63.9634146341,-1049,20.487804878,1582,-96.4634146341,-105,0.4565217391,-10,-0.0434782609,168,-0.8195121951
11686477,14316.40625,1936,-1.1870018394,2080,1.2752912324,-4960,3.0410790926,-525,51.8292682927,-850,32.012195122,1824,-111.2195121951,-103,0.447826087,-15,-0.0652173913,169,-0.8243902439
11687117,14335.9375,2848,-1.7461679951,1200,0.7357449418,-4816,2.9527896996,-525,51.8292682927,-850,32.012195122,1824,-111.2195121951,-106,0.4608695652,-12,-0.052173913,172,-0.8390243902
11687757,14355.46875,3184,-1.9521765788,800,0.4904966278,-4656,2.854690374,-540,42.0731707317,-690,32.9268292683,2040,-124.3902439024,-103,0.447826087,-17,-0.0739130435,171,-0.8341463415
11688397,14375,3808,-2.3347639485,464,0.2844880441,-4336,2.6584917229,-567,29.9390243902,-491,34.5731707317,2259,-137.743902439,-105,0.4565217391,-14,-0.0608695652,168,-0.8195121951
11689037,14394.53125,4704,-2.8841201717,672,0.4120171674,-4528,2.7762109135,-567,29.9390243902,-491,34.5731707317,2259,-137.743902439,-106,0.4608695652,-14,-0.0608695652,171,-0.8341463415
11689677,14414.0625,5600,-3.4334763948,-304,-0.1863887186,-4784,2.9331698345,-421,18.9024390244,-310,25.6707317073,2499,-152.3780487805,-107,0.4652173913,-13,-0.0565217391,171,-0.8341463415
11690317,14433.59375,6400,-3.9239730227,-1360,-0.8338442673,-4816,2.9527896996,-421,18.9024390244,-310,25.6707317073,2499,-152.3780487805,-106,0.4608695652,-15,-0.0652173913,169,-0.8243902439
11690957,14453.125,6720,-4.1201716738,-2176,-1.3341508277,-5232,3.207847946,-269,10.7926829268,-177,16.4024390244,2694,-164.2682926829,-105,0.4565217391,-17,-0.0739130435,171,-0.8341463415
11691597,14472.65625,6944,-4.2575107296,-3008,-1.8442673207,-5360,3.2863274065,-514,1.8902439024,-31,31.3414634146,2831,-172.6219512195,-109,0.4739130435,-11,-0.047826087,169,-0.8243902439
11692237,14492.1875,8576,-5.2581238504,-3504,-2.1483752299,-5552,3.4040465972,-514,1.8902439024,-31,31.3414634146,2831,-172.6219512195,-105,0.4565217391,-9,-0.0391304348,168,-0.8195121951
11692877,14511.71875,10416,-6.3862660944,-4848,-2.9724095647,-7024,4.3065603924,-131,-5.1219512195,84,7.987804878,3020,-184.1463414634,-106,0.4608695652,-12,-0.052173913,171,-0.8341463415
11693517,14531.25,9616,-5.8957694666,-6208,-3.806253832,-6784,4.159411404,-131,-5.1219512195,84,7.987804878,3020,-184.1463414634,-106,0.4608695652,-9,-0.0391304348,168,-0.8195121951
11694157,14550.78125,9552,-5.8565297364,-6896,-4.2280809319,-7040,4.316370325,-490,-9.8170731707,161,29.8780487805,3079,-187.743902439,-106,0.4608695652,-2,-0.0086956522,168,-0.8195121951
11694797,14570.3125,11920,-7.3083997548,-7936,-4.8657265481,-8416,5.1600245248,-513,-8.1097560976,133,31.2804878049,3235,-197.256097561,-106,0.4608695652,-6,-0.0260869565,166,-0.8097560976
11695437,14589.84375,13168,-8.0735744942,-9392,-5.7584304108,-9600,5.885959534,-513,-8.1097560976,133,31.2804878049,3235,-197.256097561,-105,0.4565217391,-3,-0.0130434783,166,-0.8097560976
11696077,14609.375,12176,-7.4653586757,-10480,-6.4255058246,-9456,5.797670141,-245,-11.7682926829,193,14.9390243902,3343,-203.8414634146,-103,0.447826087,-3,-0.0130434783,165,-0.8048780488
11696717,14628.90625,13232,-8.1128142244,-10944,-6.7099938688,-10688,6.5530349479,-245,-11.7682926829,193,14.9390243902,3343,-203.8414634146,-103,0.447826087,0,0,165,-0.8048780488
11697357,14648.4375,15760,-9.6627835684,-11488,-7.0435315757,-13408,8.2207234825,-277,-12.3780487805,203,16.8902439024,3474,-211.8292682927,-100,0.4347826087,6,0.0260869565,163,-0.7951219512
11697997,14667.96875,15392,-9.4371551196,-13344,-8.1814837523,-14704,9.0153280196,569,-10.9146341463,179,-34.6951219512,3641,-222.012195122,-98,0.4260869565,7,0.0304347826,165,-0.8048780488
11698637,14687.5,13872,-8.5052115267,-14512,-8.8976088289,-15424,9.4567749847,569,-10.9146341463,179,-34.6951219512,3641,-222.012195122,-93,0.4043478261,8,0.0347826087,162,-0.7902439024
11699277,14707.03125,14528,-8.9074187615,-14880,-9.1232372777,-17840,10.9380748007,98,-2.6219512195,43,-5.9756097561,3593,-219.0853658537,-90,0.3913043478,8,0.0347826087,162,-0.7902439024
11699917,14726.5625,15088,-9.250766401,-16176,-9.9178418148,-19840,12.1643163703,33,13.7195121951,-225,-2.012195122,3539,-215.7926829268,-87,0.3782608696,8,0.0347826087,161,-0.7853658537
11700557,14746.09375,14816,-9.0839975475,-17360,-10.643776824,-20544,12.5959534028,33,13.7195121951,-225,-2.012195122,3539,-215.7926829268,-85,0.3695652174,10,0.0434782609,162,-0.7902439024
11701197,14765.625,14928,-9.1526670754,-17632,-10.8105456775,-20832,12.7725321888,-316,31.5853658537,-518,19.2682926829,3324,-202.6829268293,-82,0.3565217391,11,0.047826087,161,-0.7853658537
11701837,14785.15625,16400,-10.0551808706,-17584,-10.7811158798,-22272,13.6554261189,-316,31.5853658537,-518,19.2682926829,3324,-202.6829268293,-78,0.3391304348,12,0.052173913,163,-0.7951219512
11702477,14804.6875,16160,-9.9080318823,-18080,-11.0852237891,-22912,14.0478234212,236,53.1707317073,-872,-14.3902439024,3198,-195,-78,0.3391304348,7,0.0304347826,163,-0.7951219512
11703117,14824.21875,14624,-8.9662783568,-18736,-11.4874310239,-22480,13.7829552422,295,73.3536585366,-1203,-17.987804878,2966,-180.8536585366,-74,0.3217391304,5,0.0217391304,165,-0.8048780488
11703757,14843.75,14752,-9.0447578173,-19184,-11.7621091355,-22736,13.9399141631,295,73.3536585366,-1203,-17.987804878,2966,-180.8536585366,-71,0.3086956522,2,0.0086956522,163,-0.7951219512
11704397,14863.28125,15200,-9.3194359289,-19200,-11.7719190681,-22784,13.9693439608,377,94.3902439024,-1548,-22.987804878,2710,-165.243902439,-67,0.2913043478,-8,-0.0347826087,169,-0.8243902439
11705037,14882.8125,14368,-8.8093194359,-19232,-11.7915389332,-22592,13.8516247701,377,94.3902439024,-1548,-22.987804878,2710,-165.243902439,-65,0.2826086957,-6,-0.0260869565,167,-0.8146341463
11705677,14902.34375,13488,-8.2697731453,-19072,-11.6934396076,-22400,13.7339055794,310,117.3170731707,-1924,-18.9024390244,2360,-143.9024390244,-65,0.2826086957,-11,-0.047826087,170,-0.8292682927
11706317,14921.875,14560,-8.9270386266,-18720,-11.4776210914,-22208,13.6161863887,208,139.6341463415,-2290,-12.6829268293,1956,-119.2682926829,-63,0.2739130435,-17,-0.0739130435,172,-0.8390243902
11706957,14941.40625,15712,-9.6333537707,-18496,-11.3402820356,-21600,13.2434089516,208,139.6341463415,-2290,-12.6829268293,1956,-119.2682926829,-60,0.2608695652,-25,-0.1086956522,172,-0.8390243902
11707597,14960.9375,14752,-9.0447578173,-18048,-11.065603924,-20752,12.7234825261,706,155.243902439,-2546,-43.0487804878,1606,-97.9268292683,-58,0.252173913,-29,-0.1260869565,173,-0.843902439
11708237,14980.46875,13984,-8.5738810546,-17296,-10.6045370938,-20000,12.2624156959,531,173.2317073171,-2841,-32.3780487805,1132,-69.0243902439,-55,0.2391304348,-41,-0.1782608696,175,-0.8536585366
11708877,15000,14608,-8.9564684243,-16448,-10.0846106683,-19344,11.8602084611,531,173.2317073171,-2841,-32.3780487805,1132,-69.0243902439,-56,0.2434782609,-43,-0.1869565217,175,-0.8536585366
11709517,15019.53125,14832,-9.0938074801,-15552,-9.5352544451,-17776,10.8988350705,785,183.4756097561,-3009,-47.8658536585,738,-45,-52,0.2260869565,-52,-0.2260869565,172,-0.8390243902
11710157,15039.0625,13072,-8.0147148988,-14128,-8.6621704476,-16640,10.202329859,785,183.4756097561,-3009,-47.8658536585,738,-45,-51,0.2217391304,-59,-0.2565217391,172,-0.8390243902
11710797,15058.59375,12224,-7.4947884733,-12928,-7.9264255058,-15664,9.603923973,677,189.8170731707,-3113,-41.2804878049,364,-22.1951219512,-48,0.2086956522,-70,-0.3043478261,172,-0.8390243902
11711437,15078.125,12560,-7.700797057,-11904,-7.2985898222,-13904,8.5248313918,743,190.3658536585,-3122,-45.3048780488,28,-1.7073170732,-47,0.2043478261,-72,-0.3130434783,169,-0.8243902439
11712077,15097.65625,11680,-7.1612507664,-10544,-6.4647455549,-12480,7.6517473942,743,190.3658536585,-3122,-45.3048780488,28,-1.7073170732,-46,0.2,-81,-0.352173913,165,-0.8048780488
11712717,15117.1875,10048,-6.1606376456,-8944,-5.4837522992,-11376,6.9748620478,883,185.1829268293,-3037,-53.8414634146,-187,11.4024390244,-45,0.1956521739,-88,-0.3826086957,165,-0.8048780488
11713357,15136.71875,9584,-5.8761496015,-7440,-4.5616186389,-9744,5.974248927,883,185.1829268293,-3037,-53.8414634146,-187,11.4024390244,-42,0.1826086957,-96,-0.4173913043,158,-0.7707317073
11713997,15156.25,9472,-5.8074800736,-5792,-3.5511955855,-8064,4.9442060086,764,177.6829268293,-2914,-46.5853658537,-468,28.5365853659,-37,0.1608695652,-100,-0.4347826087,155,-0.756097561
11714637,15175.78125,8496,-5.2090741876,-4224,-2.589822195,-6928,4.2477007971,961,160.0609756098,-2625,-58.5975609756,-680,41.4634146341,-33,0.1434782609,-107,-0.4652173913,150,-0.7317073171
11715277,15195.3125,7504,-4.6008583691,-2224,-1.3635806254,-6112,3.7473942367,961,160.0609756098,-2625,-58.5975609756,-680,41.4634146341,-32,0.1391304348,-109,-0.4739130435,147,-0.7170731707
11715917,15214.84375,6784,-4.159411404,-432,-0.264868179,-5440,3.3353770693,1127,141.2804878049,-2317,-68.7195121951,-793,48.3536585366,-27,0.1173913043,-108,-0.4695652174,140,-0.6829268293
11716557,15234.375,6272,-3.8454935622,864,0.5297363581,-5024,3.0803188228,1127,141.2804878049,-2317,-68.7195121951,-793,48.3536585366,-26,0.1130434783,-115,-0.5,138,-0.6731707317
11717197,15253.90625,5056,-3.0999386879,1904,1.1673819742,-5088,3.119558553,1359,120.7926829268,-1981,-82.8658536585,-872,53.1707317073,-19,0.0826086957,-120,-0.5217391304,132,-0.643902439
11717837,15273.4375,3280,-2.0110361741,3168,1.9423666462,-5120,3.1391784181,1222,105.9146341463,-1737,-74.512195122,-942,57.4390243902,-17,0.0739130435,-116,-0.5043478261,129,-0.6292682927
11718477,15292.96875,2544,-1.5597792765,4352,2.6683016554,-5152,3.1587982833,1222,105.9146341463,-1737,-74.512195122,-942,57.4390243902,-14,0.0608695652,-117,-0.5086956522,123,-0.6
11719117,15312.5,2688,-1.6480686695,5088,3.119558553,-5232,3.207847946,1080,92.3780487805,-1515,-65.8536585366,-1016,61.9512195122,-10,0.0434782609,-122,-0.5304347826,120,-0.5853658537
11719757,15332.03125,1696,-1.039852851,5520,3.3844267321,-5520,3.3844267321,1063,77.3170731707,-1268,-64.8170731707,-1078,65.7317073171,-7,0.0304347826,-117,-0.5086956522,114,-0.556097561
11720397,15351.5625,496,-0.3041079093,5872,3.6002452483,-5616,3.4432863274,1063,77.3170731707,-1268,-64.8170731707,-1078,65.7317073171,-5,0.0217391304,-118,-0.5130434783,110,-0.5365853659
11721037,15371.09375,-48,0.0294297977,6272,3.8454935622,-5536,3.3942366646,584,66.1585365854,-1085,-35.6097560976,-1228,74.8780487805,0,0,-116,-0.5043478261,106,-0.5170731707
11721677,15390.625,-96,0.0588595953,6336,3.8847332925,-5488,3.364806867,584,66.1585365854,-1085,-35.6097560976,-1228,74.8780487805,1,-0.0043478261,-114,-0.4956521739,104,-0.5073170732
11722317,15410.15625,-336,0.2060085837,6256,3.8356836297,-5392,3.3059472716,206,53.5975609756,-879,-12.5609756098,-1392,84.8780487805,4,-0.0173913043,-115,-0.5,102,-0.4975609756
11722957,15429.6875,-576,0.353157572,6128,3.7572041692,-5152,3.1587982833,-122,41.3414634146,-678,7.4390243902,-1580,96.3414634146,7,-0.0304347826,-111,-0.4826086957,101,-0.4926829268
11723597,15449.21875,-672,0.4120171674,5888,3.6100551809,-4912,3.0116492949,-122,41.3414634146,-678,7.4390243902,-1580,96.3414634146,10,-0.0434782609,-109,-0.4739130435,101,-0.4926829268
11724237,15468.75,-720,0.4414469651,5712,3.5021459227,-4800,2.942979767,-297,26.4024390244,-433,18.1097560976,-1779,108.4756097561,10,-0.0434782609,-108,-0.4695652174,101,-0.4926829268
11724877,15488.28125,-1200,0.7357449418,5216,3.1980380135,-4816,2.9527896996,-297,26.4024390244,-433,18.1097560976,-1779,108.4756097561,12,-0.052173913,-102,-0.4434782609,99,-0.4829268293
11725517,15507.8125,-1616,0.9908031882,4816,2.9527896996,-4720,2.8939301042,-360,12.012195122,-197,21.9512195122,-1941,118.3536585366,15,-0.0652173913,-102,-0.4434782609,100,-0.487804878
11726157,15527.34375,-1824,1.1183323115,4368,2.678111588,-5216,3.1980380135,-288,-4.2073170732,69,17.5609756098,-2082,126.9512195122,18,-0.0782608696,-97,-0.4217391304,100,-0.487804878
11726797,15546.875,-2672,1.638258737,3568,2.1876149601,-5728,3.5119558553,-288,-4.2073170732,69,17.5609756098,-2082,126.9512195122,19,-0.0826086957,-89,-0.3869565217,101,-0.4926829268
11727437,15566.40625,-3888,2.3838136113,2624,1.6088289393,-5776,3.541385653,-229,-17.8658536585,293,13.9634146341,-2160,131.7073170732,20,-0.0869565217,-83,-0.3608695652,102,-0.4975609756
11728077,15585.9375,-5200,3.1882280809,1984,1.216431637,-5856,3.5904353158,-229,-17.8658536585,293,13.9634146341,-2160,131.7073170732,23,-0.1,-85,-0.3695652174,102,-0.4975609756
11728717,15605.46875,-5536,3.3942366646,1344,0.8240343348,-6208,3.806253832,-694,-29.9390243902,491,42.3170731707,-2234,136.2195121951,19,-0.0826086957,-69,-0.3,103,-0.5024390244
11729357,15625,-6144,3.7670141018,1152,0.7063151441,-7824,4.7970570202,-922,-45.487804878,746,56.2195121951,-2262,137.9268292683,22,-0.0956521739,-70,-0.3043478261,107,-0.5219512195
11729997,15644.53125,-7456,4.5714285714,864,0.5297363581,-8368,5.1305947272,-922,-45.487804878,746,56.2195121951,-2262,137.9268292683,21,-0.0913043478,-64,-0.2782608696,110,-0.5365853659
11730637,15664.0625,-8240,5.0521152667,64,0.0392397302,-9136,5.6014714899,-1415,-59.8780487805,982,86.2804878049,-2255,137.5,22,-0.0956521739,-62,-0.2695652174,115,-0.5609756098
11731277,15683.59375,-7056,4.3261802575,-688,-0.4218270999,-11344,6.9552421827,-1630,-69.5731707317,1141,99.3902439024,-2228,135.8536585366,17,-0.0739130435,-46,-0.2,118,-0.5756097561
11731917,15703.125,-5344,3.2765174739,-1616,-0.9908031882,-13184,8.0833844267,-1630,-69.5731707317,1141,99.3902439024,-2228,135.8536585366,19,-0.0826086957,-47,-0.2043478261,118,-0.5756097561
11732557,15722.65625,-5440,3.3353770693,-2608,-1.5990190067,-12592,7.7204169221,-1425,-73.9024390244,1212,86.8902439024,-2018,123.0487804878,15,-0.0652173913,-38,-0.1652173913,121,-0.5902439024
11733197,15742.1875,-5232,3.207847946,-3568,-2.1876149601,-12432,7.6223175966,-1425,-73.9024390244,1212,86.8902439024,-2018,123.0487804878,14,-0.0608695652,-38,-0.1652173913,126,-0.6146341463
11733837,15761.71875,-2320,1.4224402207,-3728,-2.2857142857,-12896,7.9068056407,-1829,-88.8414634146,1457,111.5243902439,-1903,116.0365853659,10,-0.0434782609,-32,-0.1391304348,127,-0.6195121951
11734477,15781.25,-304,0.1863887186,-4880,-2.9920294298,-13856,8.4954015941,-1346,-106.6463414634,1749,82.0731707317,-1667,101.6463414634,8,-0.0347826087,-25,-0.1086956522,131,-0.6390243902
11735117,15800.78125,-1008,0.6180257511,-6064,-3.717964439,-14720,9.0251379522,-1346,-106.6463414634,1749,82.0731707317,-1667,101.6463414634,3,-0.0130434783,-23,-0.1,131,-0.6390243902
11735757,15820.3125,16,-0.0098099326,-6784,-4.159411404,-13856,8.4954015941,-1509,-113.9634146341,1869,92.012195122,-1591,97.012195122,-1,0.0043478261,-16,-0.0695652174,134,-0.6536585366
11736397,15839.84375,3088,-1.8933169834,-7632,-4.6793378296,-14560,8.9270386266,-1509,-113.9634146341,1869,92.012195122,-1591,97.012195122,-6,0.0260869565,-7,-0.0304347826,134,-0.6536585366
11737037,15859.375,3952,-2.4230533415,-8400,-5.1502145923,-17024,10.4377682403,-1114,-126.5853658537,2076,67.9268292683,-1529,93.2317073171,-7,0.0304347826,-7,-0.0304347826,135,-0.6585365854
11737677,15878.90625,3824,-2.3445738811,-10320,-6.3274064991,-17296,10.6045370938,-507,-129.6341463415,2126,30.9146341463,-1462,89.1463414634,-8,0.0347826087,1,0.0043478261,135,-0.6585365854
11738317,15898.4375,4464,-2.7369711833,-12416,-7.612507664,-16848,10.3298589822,-507,-129.6341463415,2126,30.9146341463,-1462,89.1463414634,-13,0.0565217391,9,0.0391304348,133,-0.6487804878
11738957,15917.96875,5568,-3.4138565297,-13040,-7.9950950337,-18432,11.3010423053,-412,-126.7073170732,2078,25.1219512195,-1642,100.1219512195,-13,0.0565217391,11,0.047826087,130,-0.6341463415
11739597,15937.5,4800,-2.942979767,-13392,-8.21091355,-20032,12.282035561,102,-116.5853658537,1912,-6.2195121951,-1774,108.1707317073,-20,0.0869565217,22,0.0956521739,127,-0.6195121951
11740237,15957.03125,3792,-2.3249540159,-14704,-9.0153280196,-19632,12.0367872471,102,-116.5853658537,1912,-6.2195121951,-1774,108.1707317073,-19,0.0826086957,21,0.0913043478,127,-0.6195121951
11740877,15976.5625,3920,-2.4034334764,-16352,-10.025751073,-18880,11.5757204169,-232,-100.1829268293,1643,14.1463414634,-1981,120.7926829268,-26,0.1130434783,24,0.1043478261,124,-0.6048780488
11741517,15996.09375,4448,-2.7271612508,-16688,-10.2317596567,-20832,12.7725321888,-232,-100.1829268293,1643,14.1463414634,-1981,120.7926829268,-26,0.1130434783,31,0.1347826087,122,-0.5951219512
11742157,16015.625,3600,-2.2072348253,-16832,-10.3200490497,-21760,13.3415082771,159,-84.2073170732,1381,-9.6951219512,-2131,129.9390243902,-29,0.1260869565,36,0.1565217391,120,-0.5853658537
11742797,16035.15625,1280,-0.7847946045,-17248,-10.5751072961,-21936,13.4494175353,30,-63.1097560976,1035,-1.8292682927,-2343,142.8658536585,-32,0.1391304348,36,0.1565217391,117,-0.5707317073
11743437,16054.6875,976,-0.598405886,-17808,-10.9184549356,-22928,14.0576333538,30,-63.1097560976,1035,-1.8292682927,-2343,142.8658536585,-35,0.152173913,40,0.1739130435,115,-0.5609756098
11744077,16074.21875,2240,-1.3733905579,-18048,-11.065603924,-24336,14.9209074188,-47,-39.6341463415,650,2.8658536585,-2400,146.3414634146,-42,0.1826086957,38,0.1652173913,115,-0.5609756098
11744717,16093.75,1664,-1.0202329859,-18240,-11.1833231147,-25152,15.4212139792,-47,-39.6341463415,650,2.8658536585,-2400,146.3414634146,-44,0.1913043478,42,0.1826086957,113,-0.5512195122
11745357,16113.28125,176,-0.1079092581,-18160,-11.1342734519,-25712,15.7645616186,346,-15.4268292683,253,-21.0975609756,-2388,145.6097560976,-46,0.2,43,0.1869565217,112,-0.5463414634
11745997,16132.8125,-336,0.2060085837,-18144,-11.1244635193,-25728,15.7743715512,148,12.743902439,-209,-9.0243902439,-2367,144.3292682927,-50,0.2173913043,44,0.1913043478,110,-0.5365853659
11746637,16152.34375,-512,0.3139178418,-17488,-10.7222562845,-25728,15.7743715512,148,12.743902439,-209,-9.0243902439,-2367,144.3292682927,-54,0.2347826087,45,0.1956521739,112,-0.5463414634
11747277,16171.875,160,-0.0980993256,-17056,-10.4573881055,-26144,16.0294297977,-65,37.987804878,-623,3.9634146341,-2365,144.2073170732,-59,0.2565217391,49,0.2130434783,113,-0.5512195122
11747917,16191.40625,1696,-1.039852851,-16320,-10.0061312078,-25664,15.735131821,-65,37.987804878,-623,3.9634146341,-2365,144.2073170732,-61,0.2652173913,46,0.2,114,-0.556097561
11748557,16210.9375,2432,-1.4911097486,-15264,-9.3586756591,-25312,15.5193133047,164,63.8414634146,-1047,-10,-2362,144.0243902439,-65,0.2826086957,46,0.2,116,-0.5658536585
11749197,16230.46875,1440,-0.8828939301,-15136,-9.2801961987,-24768,15.1857755978,708,84.8780487805,-1392,-43.1707317073,-2117,129.0853658537,-70,0.3043478261,51,0.2217391304,116,-0.5658536585
11749837,16250,640,-0.3923973023,-15104,-9.2605763335,-23984,14.7050889025,708,84.8780487805,-1392,-43.1707317073,-2117,129.0853658537,-72,0.3130434783,48,0.2086956522,121,-0.5902439024
11750477,16269.53125,1856,-1.1379521766,-14480,-8.8779889638,-22848,14.008583691,365,110.8536585366,-1818,-22.256097561,-2004,122.1951219512,-73,0.3173913043,43,0.1869565217,124,-0.6048780488
11751117,16289.0625,3408,-2.0895156346,-14096,-8.6425505825,-21680,13.2924586143,434,126.3414634146,-2072,-26.4634146341,-1873,114.2073170732,-75,0.3260869565,41,0.1782608696,128,-0.6243902439
11751757,16308.59375,2544,-1.5597792765,-13984,-8.5738810546,-20112,12.3310852238,434,126.3414634146,-2072,-26.4634146341,-1873,114.2073170732,-77,0.3347826087,43,0.1869565217,128,-0.6243902439
11752397,16328.125,2048,-1.2556713673,-12960,-7.9460453709,-17888,10.9675045984,304,139.8780487805,-2294,-18.5365853659,-1738,105.9756097561,-79,0.3434782609,41,0.1782608696,134,-0.6536585366
11753037,16347.65625,2480,-1.5205395463,-11536,-7.0729613734,-16160,9.9080318823,304,139.8780487805,-2294,-18.5365853659,-1738,105.9756097561,-81,0.352173913,40,0.1739130435,136,-0.6634146341
11753677,16367.1875,2784,-1.7069282649,-10704,-6.5628448804,-14640,8.9760882894,30,146.1585365854,-2397,-1.8292682927,-1581,96.4024390244,-82,0.3565217391,34,0.147826087,141,-0.687804878
11754317,16386.71875,2592,-1.5892090742,-9904,-6.0723482526,-13184,8.0833844267,57,148.9024390244,-2442,-3.4756097561,-1389,84.6951219512,-84,0.3652173913,33,0.1434782609,143,-0.6975609756
11754957,16406.25,1776,-1.0889025138,-8112,-4.9736358063,-11792,7.2299202943,57,148.9024390244,-2442,-3.4756097561,-1389,84.6951219512,-88,0.3826086957,33,0.1434782609,149,-0.7268292683
11755597,16425.78125,1696,-1.039852851,-7088,-4.3458001226,-11184,6.8571428571,81,142.743902439,-2341,-4.9390243902,-1136,69.2682926829,-89,0.3869565217,27,0.1173913043,149,-0.7268292683
11756237,16445.3125,1536,-0.9417535254,-5712,-3.5021459227,-10320,6.3274064991,81,142.743902439,-2341,-4.9390243902,-1136,69.2682926829,-88,0.3826086957,18,0.0782608696,156,-0.7609756098
11756877,16464.84375,832,-0.5101164929,-5056,-3.0999386879,-9888,6.06253832,295,136.3414634146,-2236,-17.987804878,-841,51.2804878049,-87,0.3782608696,15,0.0652173913,157,-0.7658536585
11757517,16484.375,-960,0.5885959534,-4320,-2.6486817903,-8784,5.3856529736,284,130.7317073171,-2144,-17.3170731707,-547,33.3536585366,-88,0.3826086957,10,0.0434782609,160,-0.7804878049
11758157,16503.90625,-2320,1.4224402207,-2960,-1.814837523,-7504,4.6008583691,284,130.7317073171,-2144,-17.3170731707,-547,33.3536585366,-88,0.3826086957,14,0.0608695652,162,-0.7902439024
11758797,16523.4375,-2320,1.4224402207,-1712,-1.0496627836,-7232,4.4340895156,-118,122.1341463415,-2003,7.1951219512,-259,15.7926829268,-89,0.3869565217,7,0.0304347826,166,-0.8097560976
11759437,16542.96875,-2432,1.4911097486,-1024,-0.6278356836,-7168,4.3948497854,-202,111.9512195122,-1836,12.3170731707,-15,0.9146341463,-90,0.3913043478,3,0.0130434783,165,-0.8048780488
11760077,16562.5,-3232,1.9816063765,-608,-0.3727774372,-7104,4.3556100552,-202,111.9512195122,-1836,12.3170731707,-15,0.9146341463,-90,0.3913043478,-5,-0.0217391304,169,-0.8243902439
11760717,16582.03125,-4032,2.4721030043,368,0.2256284488,-6480,3.9730226855,-473,98.5975609756,-1617,28.8414634146,212,-12.9268292683,-92,0.4,-3,-0.0130434783,168,-0.8195121951
11761357,16601.5625,-3648,2.2366646229,1840,1.128142244,-6512,3.9926425506,-473,98.5975609756,-1617,28.8414634146,212,-12.9268292683,-93,0.4043478261,-5,-0.0217391304,170,-0.8292682927
11761997,16621.09375,-3136,1.9227467811,2800,1.7167381974,-6528,4.0024524831,-373,85.243902439,-1398,22.743902439,573,-34.9390243902,-91,0.3956521739,-6,-0.0260869565,170,-0.8292682927
11762637,16640.625,-3200,1.9619865113,3008,1.8442673207,-6384,3.9141630901,-266,74.1463414634,-1216,16.2195121951,1002,-61.0975609756,-92,0.4,-9,-0.0391304348,170,-0.8292682927
11763277,16660.15625,-3056,1.8736971183,3120,1.9129368486,-5888,3.6100551809,-266,74.1463414634,-1216,16.2195121951,1002,-61.0975609756,-91,0.3956521739,-14,-0.0608695652,172,-0.8390243902
11763917,16679.6875,-2400,1.4714898835,3056,1.8736971183,-5328,3.2667075414,-520,61.2804878049,-1005,31.7073170732,1373,-83.7195121951,-94,0.4086956522,-15,-0.0652173913,173,-0.843902439
11764557,16699.21875,-1200,0.7357449418,2800,1.7167381974,-4832,2.9625996321,-520,61.2804878049,-1005,31.7073170732,1373,-83.7195121951,-95,0.4130434783,-16,-0.0695652174,171,-0.8341463415
11765197,16718.75,-528,0.3237277744,2208,1.3537706928,-4480,2.7467811159,-557,52.4390243902,-860,33.9634146341,1652,-100.7317073171,-97,0.4217391304,-18,-0.0782608696,172,-0.8390243902
11765837,16738.28125,-48,0.0294297977,1872,1.1477621091,-3856,2.3641937462,-717,40.3658536585,-662,43.7195121951,1879,-114.5731707317,-98,0.4260869565,-17,-0.0739130435,172,-0.8390243902
11766477,16757.8125,1312,-0.8044144697,1856,1.1379521766,-3392,2.079705702,-717,40.3658536585,-662,43.7195121951,1879,-114.5731707317,-98,0.4260869565,-23,-0.1,174,-0.8487804878
11767117,16777.34375,2736,-1.6774984672,1184,0.7259350092,-3776,2.3151440834,-556,27.1341463415,-445,33.9024390244,2127,-129.6951219512,-98,0.4260869565,-19,-0.0826086957,172,-0.8390243902
11767757,16796.875,3360,-2.0600858369,688,0.4218270999,-4272,2.6192519926,-556,27.1341463415,-445,33.9024390244,2127,-129.6951219512,-97,0.4217391304,-20,-0.0869565217,174,-0.8487804878
11768397,16816.40625,3248,-1.991416309,-64,-0.0392397302,-4080,2.501532802,-451,19.2682926829,-316,27.5,2307,-140.6707317073,-102,0.4434782609,-24,-0.1043478261,172,-0.8390243902
11769037,16835.9375,3920,-2.4034334764,-464,-0.2844880441,-3728,2.2857142857,-869,7.987804878,-131,52.987804878,2432,-148.2926829268,-102,0.4434782609,-20,-0.0869565217,174,-0.8487804878
11769677,16855.46875,6336,-3.8847332925,-976,-0.598405886,-4768,2.9233599019,-869,7.987804878,-131,52.987804878,2432,-148.2926829268,-104,0.452173913,-20,-0.0869565217,173,-0.843902439
11770317,16875,8512,-5.2188841202,-2400,-1.4714898835,-5824,3.5708154506,-295,1.5853658537,-26,17.987804878,2658,-162.0731707317,-103,0.447826087,-21,-0.0913043478,171,-0.8341463415
11770957,16894.53125,7472,-4.581238504,-3200,-1.9619865113,-5376,3.2961373391,-306,-6.0975609756,100,18.6585365854,2824,-172.1951219512,-103,0.447826087,-21,-0.0913043478,173,-0.843902439
11771597,16914.0625,7280,-4.4635193133,-3152,-1.9325567137,-5376,3.2961373391,-306,-6.0975609756,100,18.6585365854,2824,-172.1951219512,-104,0.452173913,-18,-0.0782608696,170,-0.8292682927
11772237,16933.59375,10160,-6.2293071735,-3840,-2.3543838136,-6416,3.9337829552,-446,-19.6951219512,323,27.1951219512,3078,-187.6829268293,-104,0.452173913,-13,-0.0565217391,169,-0.8243902439
11772877,16953.125,12064,-7.3966891478,-5904,-3.6198651134,-8864,5.4347026364,-446,-19.6951219512,323,27.1951219512,3078,-187.6829268293,-105,0.4565217391,-14,-0.0608695652,172,-0.8390243902
11773517,16972.65625,10400,-6.3764561619,-7760,-4.75781729,-8432,5.1698344574,152,-23.5365853659,386,-9.2682926829,3304,-201.4634146341,-103,0.447826087,-8,-0.0347826087,168,-0.8195121951
11774157,16992.1875,10304,-6.3175965665,-8304,-5.0913549969,-7952,4.8755364807,-587,-29.6951219512,487,35.7926829268,3407,-207.743902439,-102,0.4434782609,-8,-0.0347826087,169,-0.8243902439
11774797,17011.71875,13392,-8.21091355,-8448,-5.1796443899,-10112,6.1998773758,-587,-29.6951219512,487,35.7926829268,3407,-207.743902439,-103,0.447826087,-5,-0.0217391304,168,-0.8195121951
11775437,17031.25,15392,-9.4371551196,-10160,-6.2293071735,-12432,7.6223175966,367,-36.8292682927,604,-22.3780487805,3685,-224.6951219512,-101,0.4391304348,-5,-0.0217391304,168,-0.8195121951
11776077,17050.78125,14112,-8.652360515,-12480,-7.6517473942,-12528,7.6811771919,367,-36.8292682927,604,-22.3780487805,3685,-224.6951219512,-97,0.4217391304,-3,-0.0130434783,167,-0.8146341463
11776717,17070.3125,13024,-7.9852851012,-13504,-8.2795830779,-12608,7.7302268547,838,-40.3048780488,661,-51.0975609756,3767,-229.6951219512,-92,0.4,0,0,166,-0.8097560976
11777357,17089.84375,14272,-8.7504598406,-13840,-8.4855916616,-15024,9.2115266708,1296,-42.256097561,693,-79.0243902439,3924,-239.2682926829,-86,0.3739130435,2,0.0086956522,165,-0.8048780488
11777997,17109.375,15216,-9.3292458614,-15072,-9.2409564684,-17760,10.889025138,1296,-42.256097561,693,-79.0243902439,3924,-239.2682926829,-82,0.3565217391,8,0.0347826087,165,-0.8048780488
11778637,17128.90625,13856,-8.4954015941,-16448,-10.0846106683,-18720,11.4776210914,2122,-53.2317073171,873,-129.3902439024,3957,-241.2804878049,-73,0.3173913043,9,0.0391304348,161,-0.7853658537
11779277,17148.4375,12752,-7.8185162477,-17088,-10.4770079706,-19824,12.1545064378,2122,-53.2317073171,873,-129.3902439024,3957,-241.2804878049,-67,0.2913043478,5,0.0217391304,160,-0.7804878049
11779917,17167.96875,11264,-6.9061925199,-17440,-10.6928264868,-22544,13.8221949724,1869,-54.512195122,894,-113.9634146341,3747,-228.4756097561,-60,0.2608695652,12,0.052173913,159,-0.7756097561
11780557,17187.5,7984,-4.8951563458,-18016,-11.0459840589,-24480,15.0091968118,1395,-41.9512195122,688,-85.0609756098,3525,-214.9390243902,-55,0.2391304348,11,0.047826087,156,-0.7609756098
11781197,17207.03125,5936,-3.6394849785,-18512,-11.3500919681,-25408,15.5781729001,1395,-41.9512195122,688,-85.0609756098,3525,-214.9390243902,-50,0.2173913043,9,0.0391304348,155,-0.756097561
11781837,17226.5625,7136,-4.3752299203,-19344,-11.8602084611,-26464,16.2256284488,245,-20.8536585366,342,-14.9390243902,3229,-196.8902439024,-46,0.2,10,0.0434782609,156,-0.7609756098
11782477,17246.09375,8624,-5.2875536481,-20080,-12.3114653587,-26720,16.3825873697,375,8.4146341463,-138,-22.8658536585,3048,-185.8536585366,-40,0.1739130435,2,0.0086956522,156,-0.7609756098
11783117,17265.625,7600,-4.6597179644,-20112,-12.3310852238,-25920,15.8920907419,375,8.4146341463,-138,-22.8658536585,3048,-185.8536585366,-38,0.1652173913,3,0.0130434783,154,-0.7512195122
11783757,17285.15625,6112,-3.7473942367,-20032,-12.282035561,-25744,15.7841814838,202,37.8048780488,-620,-12.3170731707,2785,-169.8170731707,-36,0.1565217391,-1,-0.0043478261,155,-0.756097561
11784397,17304.6875,6672,-4.0907418761,-19632,-12.0367872471,-25568,15.6762722256,202,37.8048780488,-620,-12.3170731707,2785,-169.8170731707,-35,0.152173913,-2,-0.0086956522,155,-0.756097561
11785037,17324.21875,7808,-4.7872470877,-19088,-11.7032495402,-24960,15.3034947885,-43,69.9390243902,-1147,2.6219512195,2432,-148.2926829268,-34,0.147826087,-9,-0.0391304348,158,-0.7707317073
11785677,17343.75,7168,-4.3948497854,-18848,-11.5561005518,-24288,14.8914776211,207,94.2073170732,-1545,-12.6219512195,2204,-134.3902439024,-30,0.1304347826,-16,-0.0695652174,158,-0.7707317073
11786317,17363.28125,6656,-4.0809319436,-18384,-11.2716125077,-23952,14.6854690374,207,94.2073170732,-1545,-12.6219512195,2204,-134.3902439024,-28,0.1217391304,-23,-0.1,160,-0.7804878049
11786957,17382.8125,7424,-4.5518087063,-17760,-10.889025138,-23200,14.2244022072,79,117.8048780488,-1932,-4.8170731707,1927,-117.5,-27,0.1173913043,-26,-0.1130434783,160,-0.7804878049
11787597,17402.34375,7792,-4.7774371551,-17024,-10.4377682403,-21968,13.4690374004,79,117.8048780488,-1932,-4.8170731707,1927,-117.5,-26,0.1130434783,-31,-0.1347826087,163,-0.7951219512
11788237,17421.875,7328,-4.492949111,-16336,-10.0159411404,-21136,12.9589209074,200,139.4512195122,-2287,-12.1951219512,1605,-97.8658536585,-24,0.1043478261,-40,-0.1739130435,161,-0.7853658537
11788877,17441.40625,7504,-4.6008583691,-15408,-9.4469650521,-19888,12.193746168,39,156.5853658537,-2568,-2.3780487805,1201,-73.2317073171,-24,0.1043478261,-48,-0.2086956522,163,-0.7951219512
11789517,17460.9375,7904,-4.846106683,-14320,-8.7798896383,-18640,11.4285714286,39,156.5853658537,-2568,-2.3780487805,1201,-73.2317073171,-25,0.1086956522,-49,-0.2130434783,162,-0.7902439024
11790157,17480.46875,7744,-4.7480073574,-13120,-8.0441446965,-17664,10.8301655426,189,166.0975609756,-2724,-11.5243902439,858,-52.3170731707,-26,0.1130434783,-56,-0.2434782609,160,-0.7804878049
11790797,17500,7248,-4.4438994482,-12048,-7.3868792152,-16496,10.114040466,274,171.3414634146,-2810,-16.7073170732,579,-35.3048780488,-23,0.1,-64,-0.2782608696,161,-0.7853658537
11791437,17519.53125,6896,-4.2280809319,-10864,-6.660944206,-15264,9.3586756591,274,171.3414634146,-2810,-16.7073170732,579,-35.3048780488,-23,0.1,-72,-0.3130434783,158,-0.7707317073
11792077,17539.0625,6944,-4.2575107296,-9600,-5.885959534,-13888,8.5150214592,261,172.743902439,-2833,-15.9146341463,283,-17.256097561,-22,0.0956521739,-75,-0.3260869565,155,-0.756097561
11792717,17558.59375,7024,-4.3065603924,-8304,-5.0913549969,-12656,7.7596566524,261,172.743902439,-2833,-15.9146341463,283,-17.256097561,-22,0.0956521739,-81,-0.352173913,152,-0.7414634146
11793357,17578.125,6272,-3.8454935622,-6896,-4.2280809319,-12064,7.3966891478,490,167.5,-2747,-29.8780487805,40,-2.4390243902,-18,0.0782608696,-89,-0.3869565217,151,-0.7365853659
11793997,17597.65625,5440,-3.3353770693,-5424,-3.3255671367,-11056,6.7786633967,505,161.0975609756,-2642,-30.7926829268,-177,10.7926829268,-19,0.0826086957,-97,-0.4217391304,147,-0.7170731707
11794637,17617.1875,5216,-3.1980380135,-4144,-2.5407725322,-10224,6.2685469037,505,161.0975609756,-2642,-30.7926829268,-177,10.7926829268,-16,0.0695652174,-95,-0.4130434783,143,-0.6975609756
11795277,17636.71875,5056,-3.0999386879,-2592,-1.5892090742,-9648,5.9153893317,584,151.6463414634,-2487,-35.6097560976,-388,23.6585365854,-14,0.0608695652,-103,-0.447826087,139,-0.6780487805
11795917,17656.25,4496,-2.7565910484,-1296,-0.7946045371,-8992,5.5131820969,584,151.6463414634,-2487,-35.6097560976,-388,23.6585365854,-15,0.0652173913,-102,-0.4434782609,136,-0.6634146341
11796557,17675.78125,3728,-2.2857142857,-208,-0.1275291232,-8176,5.0128755365,748,140,-2296,-45.6097560976,-606,36.9512195122,-10,0.0434782609,-110,-0.4782608696,130,-0.6341463415
11797197,17695.3125,3440,-2.1091354997,896,0.5493562232,-7648,4.6891477621,957,127.6829268293,-2094,-58.3536585366,-807,49.2073170732,-7,0.0304347826,-111,-0.4826086957,127,-0.6195121951
11797837,17714.84375,2896,-1.7755977928,1856,1.1379521766,-7440,4.5616186389,957,127.6829268293,-2094,-58.3536585366,-807,49.2073170732,-3,0.0130434783,-113,-0.4913043478,121,-0.5902439024
11798477,17734.375,1824,-1.1183323115,2400,1.4714898835,-7072,4.3359901901,1214,115.487804878,-1894,-74.0243902439,-945,57.6219512195,-2,0.0086956522,-110,-0.4782608696,118,-0.5756097561
11799117,17753.90625,1104,-0.6768853464,2960,1.814837523,-6336,3.8847332925,1214,115.487804878,-1894,-74.0243902439,-945,57.6219512195,2,-0.0086956522,-110,-0.4782608696,111,-0.5414634146
11799757,17773.4375,560,-0.3433476395,3568,2.1876149601,-5648,3.4629061925,1065,103.6585365854,-1700,-64.9390243902,-1134,69.1463414634,5,-0.0217391304,-114,-0.4956521739,108,-0.5268292683
11800397,17792.96875,16,-0.0098099326,3936,2.413243409,-5408,3.3157572042,884,91.8292682927,-1506,-53.9024390244,-1306,79.6341463415,9,-0.0391304348,-109,-0.4739130435,102,-0.4975609756
11801037,17812.5,-768,0.4708767627,4240,2.5996321275,-5168,3.1686082158,884,91.8292682927,-1506,-53.9024390244,-1306,79.6341463415,9,-0.0391304348,-108,-0.4695652174,99,-0.4829268293
11801677,17832.03125,-1312,0.8044144697,4624,2.8350705089,-4816,2.9527896996,536,80.7926829268,-1325,-32.6829268293,-1452,88.5365853659,13,-0.0565217391,-104,-0.452173913,94,-0.4585365854
11802317,17851.5625,-1808,1.1085223789,5056,3.0999386879,-4912,3.0116492949,81,64.6951219512,-1061,-4.9390243902,-1485,90.5487804878,15,-0.0652173913,-106,-0.4608695652,95,-0.4634146341
11802957,17871.09375,-2256,1.3832004905,4944,3.03126916,-5056,3.0999386879,81,64.6951219512,-1061,-4.9390243902,-1485,90.5487804878,16,-0.0695652174,-104,-0.452173913,92,-0.4487804878
11803597,17890.625,-3248,1.991416309,4928,3.0214592275,-4992,3.0606989577,-629,51.0975609756,-838,38.3536585366,-1503,91.6463414634,19,-0.0826086957,-98,-0.4260869565,91,-0.443902439
11804237,17910.15625,-3120,1.9129368486,5104,3.1293684856,-4688,2.8743102391,-629,51.0975609756,-838,38.3536585366,-1503,91.6463414634,20,-0.0869565217,-98,-0.4260869565,92,-0.4487804878
11804877,17929.6875,-2112,1.2949110975,5056,3.0999386879,-4784,2.9331698345,-1309,34.9390243902,-573,79.8170731707,-1721,104.9390243902,20,-0.0869565217,-93,-0.4043478261,95,-0.4634146341
11805517,17949.21875,-2096,1.2851011649,4320,2.6486817903,-5280,3.2372777437,-962,11.9512195122,-196,58.6585365854,-1862,113.5365853659,19,-0.0826086957,-91,-0.3956521739,94,-0.4585365854
11806157,17968.75,-3760,2.3053341508,3520,2.1581851625,-6096,3.7375843041,-962,11.9512195122,-196,58.6585365854,-1862,113.5365853659,22,-0.0956521739,-87,-0.3782608696,97,-0.4731707317
11806797,17988.28125,-4752,2.9135499693,2864,1.7559779277,-6672,4.0907418761,-860,-3.2926829268,54,52.4390243902,-1953,119.0853658537,21,-0.0913043478,-84,-0.3652173913,98,-0.4780487805
11807437,18007.8125,-4672,2.8645003066,2304,1.4126302882,-6784,4.159411404,-860,-3.2926829268,54,52.4390243902,-1953,119.0853658537,23,-0.1,-77,-0.3347826087,102,-0.4975609756
11808077,18027.34375,-5328,3.2667075414,1408,0.863274065,-7344,4.5027590435,-1030,-17.5609756098,288,62.8048780488,-2053,125.1829268293,25,-0.1086956522,-77,-0.3347826087,102,-0.4975609756
11808717,18046.875,-6304,3.8651134273,592,0.3629675046,-7904,4.846106683,-1156,-31.7073170732,520,70.487804878,-2115,128.9634146341,24,-0.1043478261,-69,-0.3,105,-0.512195122
11809357,18066.40625,-5840,3.5806253832,-240,-0.1471489884,-8272,5.0717351318,-1156,-31.7073170732,520,70.487804878,-2115,128.9634146341,23,-0.1,-61,-0.2652173913,108,-0.5268292683
11809997,18085.9375,-4880,2.9920294298,-800,-0.4904966278,-8912,5.4641324341,-1234,-49.1463414634,806,75.243902439,-2128,129.756097561,22,-0.0956521739,-55,-0.2391304348,112,-0.5463414634
11810637,18105.46875,-5232,3.207847946,-1120,-0.686695279,-10656,6.5334150828,-1117,-63.5365853659,1042,68.1097560976,-2148,130.9756097561,23,-0.1,-54,-0.2347826087,113,-0.5512195122
11811277,18125,-5856,3.5904353158,-1904,-1.1673819742,-11344,6.9552421827,-1117,-63.5365853659,1042,68.1097560976,-2148,130.9756097561,19,-0.0826086957,-47,-0.2043478261,117,-0.5707317073
11811917,18144.53125,-5520,3.3844267321,-3360,-2.0600858369,-11472,7.0337216432,-1225,-75.487804878,1238,74.6951219512,-2121,129.3292682927,17,-0.0739130435,-40,-0.1739130435,116,-0.5658536585
11812557,18164.0625,-4352,2.6683016554,-4384,-2.6879215205,-12272,7.524218271,-1225,-75.487804878,1238,74.6951219512,-2121,129.3292682927,14,-0.0608695652,-31,-0.1347826087,119,-0.5804878049
11813197,18183.59375,-4112,2.5211526671,-4880,-2.9920294298,-13776,8.4463519313,-821,-89.0853658537,1461,50.0609756098,-2073,126.4024390244,14,-0.0608695652,-31,-0.1347826087,120,-0.5853658537
11813837,18203.125,-4560,2.7958307787,-5824,-3.5708154506,-14224,8.7210300429,-480,-92.8658536585,1523,29.2682926829,-1945,118.5975609756,11,-0.047826087,-20,-0.0869565217,120,-0.5853658537
11814477,18222.65625,-4256,2.6094420601,-7408,-4.5419987738,-14336,8.7896995708,-480,-92.8658536585,1523,29.2682926829,-1945,118.5975609756,9,-0.0391304348,-17,-0.0739130435,121,-0.5902439024
11815117,18242.1875,-2880,1.7657878602,-8832,-5.4150827713,-14512,8.8976088289,-582,-97.5,1599,35.487804878,-1905,116.1585365854,5,-0.0217391304,-7,-0.0304347826,121,-0.5902439024
11815757,18261.71875,-3120,1.9129368486,-9232,-5.6603310852,-15904,9.7510729614,-582,-97.5,1599,35.487804878,-1905,116.1585365854,6,-0.0260869565,-12,-0.052173913,123,-0.6
11816397,18281.25,-2976,1.8246474555,-9776,-5.9938687922,-16528,10.1336603311,-441,-101.7073170732,1668,26.8902439024,-1881,114.6951219512,2,-0.0086956522,-1,-0.0043478261,119,-0.5804878049
11817037,18300.78125,-1216,0.7455548743,-11408,-6.9944819129,-16208,9.93746168,-557,-96.7073170732,1586,33.9634146341,-1921,117.1341463415,0,0,5,0.0217391304,120,-0.5853658537
11817677,18320.3125,368,-0.2256284488,-12912,-7.9166155733,-15904,9.7510729614,-557,-96.7073170732,1586,33.9634146341,-1921,117.1341463415,-6,0.0260869565,6,0.0260869565,120,-0.5853658537
11818317,18339.84375,-320,0.1961986511,-13392,-8.21091355,-17536,10.7516860822,-95,-93.7195121951,1537,5.7926829268,-2065,125.9146341463,-6,0.0260869565,13,0.0565217391,119,-0.5804878049
11818957,18359.375,-1392,0.8534641324,-13456,-8.2501532802,-19136,11.7326793378,-95,-93.7195121951,1537,5.7926829268,-2065,125.9146341463,-10,0.0434782609,19,0.0826086957,117,-0.5707317073
11819597,18378.90625,-1056,0.6474555487,-14480,-8.8779889638,-19152,11.7424892704,-24,-81.0975609756,1330,1.4634146341,-2228,135.8536585366,-10,0.0434782609,18,0.0782608696,116,-0.5658536585
11820237,18398.4375,-304,0.1863887186,-15776,-9.6725935009,-19392,11.8896382587,-437,-66.0365853659,1083,26.6463414634,-2411,147.012195122,-16,0.0695652174,24,0.1043478261,115,-0.5609756098
11820877,18417.96875,-496,0.3041079093,-15504,-9.5058246475,-20592,12.6253832005,-437,-66.0365853659,1083,26.6463414634,-2411,147.012195122,-23,0.1,29,0.1260869565,112,-0.5463414634
11821517,18437.5,-240,0.1471489884,-15552,-9.5352544451,-21136,12.9589209074,-780,-51.4634146341,844,47.5609756098,-2564,156.3414634146,-24,0.1043478261,34,0.147826087,111,-0.5414634146
11822157,18457.03125,-368,0.2256284488,-16512,-10.1238503985,-22272,13.6554261189,-1603,-43.6585365854,716,97.743902439,-2760,168.2926829268,-28,0.1217391304,33,0.1434782609,113,-0.5512195122
11822797,18476.5625,-272,0.1667688535,-17216,-10.555487431,-24448,14.9895769467,-1603,-43.6585365854,716,97.743902439,-2760,168.2926829268,-38,0.1652173913,38,0.1652173913,113,-0.5512195122
11823437,18496.09375,1680,-1.0300429185,-17200,-10.5456774985,-25648,15.7253218884,-2833,-28.1707317073,462,172.743902439,-3094,188.6585365854,-42,0.1826086957,43,0.1869565217,113,-0.5512195122
11824077,18515.625,3744,-2.2955242183,-16544,-10.1434702636,-26336,16.1471489884,-2833,-28.1707317073,462,172.743902439,-3094,188.6585365854,-51,0.2217391304,46,0.2,114,-0.556097561
11824717,18535.15625,4608,-2.8252605763,-16256,-9.9668914776,-26496,16.2452483139,-2984,-13.2317073171,217,181.9512195122,-3211,195.7926829268,-60,0.2608695652,44,0.1913043478,117,-0.5707317073
11825357,18554.6875,6752,-4.1397915389,-16672,-10.2219497241,-26944,16.5199264255,-2114,-2.1341463415,35,128.9024390244,-3212,195.8536585366,-70,0.3043478261,51,0.2217391304,116,-0.5658536585
11825997,18574.21875,8880,-5.444512569,-16832,-10.3200490497,-27536,16.8828939301,-2114,-2.1341463415,35,128.9024390244,-3212,195.8536585366,-73,0.3173913043,46,0.2,117,-0.5707317073
11826637,18593.75,9248,-5.6701410178,-16816,-10.3102391171,-27856,17.0790925812,-490,21.8902439024,-359,29.8780487805,-3247,197.987804878,-84,0.3652173913,48,0.2086956522,117,-0.5707317073
11827277,18613.28125,7808,-4.7872470877,-16832,-10.3200490497,-27440,16.8240343348,-490,21.8902439024,-359,29.8780487805,-3247,197.987804878,-86,0.3739130435,52,0.2260869565,119,-0.5804878049
11827917,18632.8125,6240,-3.8258736971,-16256,-9.9668914776,-26832,16.4512568976,294,49.0853658537,-805,-17.9268292683,-3169,193.2317073171,-93,0.4043478261,50,0.2173913043,121,-0.5902439024
11828557,18652.34375,5280,-3.2372777437,-15504,-9.5058246475,-25776,15.8038013489,362,78.8414634146,-1293,-22.0731707317,-2994,182.5609756098,-95,0.4130434783,44,0.1913043478,123,-0.6
11829197,18671.875,4768,-2.9233599019,-14480,-8.8779889638,-24400,14.960147149,362,78.8414634146,-1293,-22.0731707317,-2994,182.5609756098,-99,0.4304347826,44,0.1913043478,126,-0.6146341463
11829837,18691.40625,4224,-2.589822195,-13312,-8.1618638872,-22624,13.8712446352,149,103.6585365854,-1700,-9.0853658537,-2633,160.5487804878,-103,0.447826087,44,0.1913043478,128,-0.6243902439
11830477,18710.9375,4096,-2.5113427345,-12000,-7.3574494175,-20560,12.6057633354,-184,120.7317073171,-1980,11.2195121951,-2244,136.8292682927,-107,0.4652173913,41,0.1782608696,132,-0.643902439
11831117,18730.46875,4288,-2.6290619252,-10672,-6.5432250153,-18672,11.4481912937,-184,120.7317073171,-1980,11.2195121951,-2244,136.8292682927,-109,0.4739130435,34,0.147826087,135,-0.6585365854
11831757,18750,5120,-3.1391784181,-9600,-5.885959534,-17568,10.7713059473,-195,129.2073170732,-2119,11.8902439024,-1831,111.6463414634,-114,0.4956521739,30,0.1304347826,139,-0.6780487805
11832397,18769.53125,5584,-3.4236664623,-8960,-5.4935622318,-15984,9.8001226242,-195,129.2073170732,-2119,11.8902439024,-1831,111.6463414634,-116,0.5043478261,32,0.1391304348,140,-0.6829268293
11833037,18789.0625,4976,-3.0508890251,-8240,-5.0521152667,-13792,8.4561618639,148,138.2926829268,-2268,-9.0243902439,-1402,85.487804878,-118,0.5130434783,29,0.1260869565,146,-0.712195122
11833677,18808.59375,3968,-2.4328632741,-7264,-4.4537093807,-12080,7.4064990803,292,143.4756097561,-2353,-17.8048780488,-983,59.9390243902,-118,0.5130434783,19,0.0826086957,149,-0.7268292683
11834317,18828.125,3584,-2.1974248927,-6128,-3.7572041692,-10880,6.6707541386,292,143.4756097561,-2353,-17.8048780488,-983,59.9390243902,-119,0.5173913043,14,0.0608695652,153,-0.7463414634
11834957,18847.65625,3136,-1.9227467811,-5616,-3.4432863274,-9488,5.8172900061,364,144.512195122,-2370,-22.1951219512,-633,38.5975609756,-117,0.5086956522,10,0.0434782609,155,-0.756097561
11835597,18867.1875,2672,-1.638258737,-5072,-3.1097486205,-9072,5.5622317597,364,144.512195122,-2370,-22.1951219512,-633,38.5975609756,-121,0.5260869565,11,0.047826087,158,-0.7707317073
11836237,18886.71875,2096,-1.2851011649,-4144,-2.5407725322,-8656,5.3071735132,364,145.3048780488,-2383,-22.1951219512,-370,22.5609756098,-120,0.5217391304,7,0.0304347826,160,-0.7804878049
11836877,18906.25,1488,-0.9123237278,-2800,-1.7167381974,-7536,4.6204782342,258,139.9390243902,-2295,-15.7317073171,-39,2.3780487805,-119,0.5173913043,1,0.0043478261,163,-0.7951219512
11837517,18925.78125,1344,-0.8240343348,-2304,-1.4126302882,-6864,4.2084610668,258,139.9390243902,-2295,-15.7317073171,-39,2.3780487805,-118,0.5130434783,-5,-0.0217391304,165,-0.8048780488
11838157,18945.3125,1008,-0.6180257511,-1888,-1.1575720417,-6144,3.7670141018,109,134.5731707317,-2207,-6.6463414634,261,-15.9146341463,-120,0.5217391304,-7,-0.0304347826,166,-0.8097560976
11838797,18964.84375,896,-0.5493562232,-352,-0.2158185162,-5376,3.2961373391,109,134.5731707317,-2207,-6.6463414634,261,-15.9146341463,-117,0.5086956522,-11,-0.047826087,169,-0.8243902439
11839437,18984.375,1376,-0.8436541999,1072,0.6572654813,-5248,3.2176578786,74,124.4512195122,-2041,-4.512195122,551,-33.5975609756,-116,0.5043478261,-18,-0.0782608696,168,-0.8195121951
11840077,19003.90625,1312,-0.8044144697,1808,1.1085223789,-4816,2.9527896996,376,114.8170731707,-1883,-22.9268292683,911,-55.5487804878,-116,0.5043478261,-17,-0.0739130435,170,-0.8292682927
11840717,19023.4375,800,-0.4904966278,2176,1.3341508277,-4224,2.589822195,376,114.8170731707,-1883,-22.9268292683,911,-55.5487804878,-114,0.4956521739,-21,-0.0913043478,169,-0.8243902439
11841357,19042.96875,608,-0.3727774372,2448,1.5009196812,-3888,2.3838136113,386,101.0365853659,-1657,-23.5365853659,1251,-76.2804878049,-115,0.5,-22,-0.0956521739,170,-0.8292682927
11841997,19062.5,1056,-0.6474555487,2336,1.4322501533,-3856,2.3641937462,251,88.9634146341,-1459,-15.3048780488,1598,-97.4390243902,-113,0.4913043478,-27,-0.1173913043,173,-0.843902439
11842637,19082.03125,1536,-0.9417535254,2128,1.30472103,-3456,2.1189454323,251,88.9634146341,-1459,-15.3048780488,1598,-97.4390243902,-114,0.4956521739,-30,-0.1304347826,171,-0.8341463415
11843277,19101.5625,1952,-1.1968117719,2032,1.2458614347,-2848,1.7461679951,91,75.6707317073,-1241,-5.5487804878,1876,-114.3902439024,-114,0.4956521739,-26,-0.1130434783,171,-0.8341463415
11843917,19121.09375,2592,-1.5892090742,1968,1.2066217045,-2688,1.6480686695,91,75.6707317073,-1241,-5.5487804878,1876,-114.3902439024,-116,0.5043478261,-28,-0.1217391304,171,-0.8341463415
11844557,19140.625,3360,-2.0600858369,1264,0.774984672,-2288,1.4028203556,-114,60.0609756098,-985,6.9512195122,2101,-128.1097560976,-115,0.5,-34,-0.147826087,170,-0.8292682927
11845197,19160.15625,4224,-2.589822195,1104,0.6768853464,-1744,1.0692826487,-154,45.6097560976,-748,9.3902439024,2357,-143.7195121951,-114,0.4956521739,-33,-0.1434782609,170,-0.8292682927
11845837,19179.6875,5632,-3.45309626,848,0.5199264255,-2064,1.2654812998,-154,45.6097560976,-748,9.3902439024,2357,-143.7195121951,-117,0.5086956522,-30,-0.1304347826,171,-0.8341463415
11846477,19199.21875,6192,-3.7964438994,-336,-0.2060085837,-2560,1.5695892091,45,34.512195122,-566,-2.743902439,2623,-159.9390243902,-117,0.5086956522,-28,-0.1217391304,170,-0.8292682927
11847117,19218.75,6096,-3.7375843041,-1008,-0.6180257511,-2768,1.6971183323,45,34.512195122,-566,-2.743902439,2623,-159.9390243902,-118,0.5130434783,-29,-0.1260869565,172,-0.8390243902
11847757,19238.28125,7328,-4.492949111,-1376,-0.8436541999,-3184,1.9521765788,-179,27.8048780488,-456,10.9146341463,2816,-171.7073170732,-117,0.5086956522,-29,-0.1260869565,170,-0.8292682927
11848397,19257.8125,8752,-5.3660331085,-2896,-1.7755977928,-3600,2.2072348253,-189,24.0853658537,-395,11.5243902439,3053,-186.1585365854,-117,0.5086956522,-32,-0.1391304348,171,-0.8341463415
11849037,19277.34375,9312,-5.709380748,-3984,-2.4426732066,-3824,2.3445738811,-189,24.0853658537,-395,11.5243902439,3053,-186.1585365854,-119,0.5173913043,-25,-0.1086956522,168,-0.8195121951
11849677,19296.875,9824,-6.0232985898,-4080,-2.501532802,-4976,3.0508890251,-365,19.4512195122,-319,22.256097561,3219,-196.2804878049,-120,0.5217391304,-24,-0.1043478261,169,-0.8243902439
11850317,19316.40625,11584,-7.1023911711,-4768,-2.9233599019,-5808,3.5610055181,-365,19.4512195122,-319,22.256097561,3219,-196.2804878049,-118,0.5130434783,-22,-0.0956521739,168,-0.8195121951
11850957,19335.9375,14400,-8.828939301,-6496,-3.982832618,-6672,4.0907418761,-405,11.1585365854,-183,24.6951219512,3441,-209.8170731707,-121,0.5260869565,-23,-0.1,169,-0.8243902439
11851597,19355.46875,15536,-9.5254445126,-7904,-4.846106683,-7664,4.6989576947,292,7.6829268293,-126,-17.8048780488,3657,-222.987804878,-122,0.5304347826,-19,-0.0826086957,167,-0.8146341463
11852237,19375,14848,-9.1036174126,-8704,-5.3366033109,-8736,5.356223176,292,7.6829268293,-126,-17.8048780488,3657,-222.987804878,-118,0.5130434783,-17,-0.0739130435,168,-0.8195121951
11852877,19394.53125,16368,-10.0355610055,-9888,-6.06253832,-10320,6.3274064991,0,4.0853658537,-67,0,3727,-227.256097561,-115,0.5,-15,-0.0652173913,167,-0.8146341463
11853517,19414.0625,18400,-11.2814224402,-11568,-7.0925812385,-11600,7.1122011036,220,8.2926829268,-136,-13.4146341463,3700,-225.6097560976,-116,0.5043478261,-13,-0.0565217391,166,-0.8097560976
11854157,19433.59375,18432,-11.3010423053,-12736,-7.8087063151,-12800,7.8479460454,220,8.2926829268,-136,-13.4146341463,3700,-225.6097560976,-112,0.4869565217,-7,-0.0304347826,166,-0.8097560976
11854797,19453.125,18816,-11.5364806867,-13200,-8.0931943593,-13488,8.2697731453,-41,15.9146341463,-261,2.5,3533,-215.4268292683,-111,0.4826086957,-10,-0.0434782609,167,-0.8146341463
11855437,19472.65625,21008,-12.880441447,-13616,-8.3482526058,-14608,8.9564684243,-41,15.9146341463,-261,2.5,3533,-215.4268292683,-111,0.4826086957,2,0.0086956522,165,-0.8048780488
11856077,19492.1875,21856,-13.4003678725,-14032,-8.6033108522,-15456,9.4763948498,380,29.8170731707,-489,-23.1707317073,3365,-205.1829268293,-108,0.4695652174,-1,-0.0043478261,167,-0.8146341463
11856717,19511.71875,20752,-12.7234825261,-14080,-8.6327406499,-16624,10.1925199264,855,35.3048780488,-579,-52.1341463415,3155,-192.3780487805,-103,0.447826087,-2,-0.0086956522,168,-0.8195121951
11857357,19531.25,20096,-12.3212752912,-14384,-8.8191293685,-17728,10.8694052728,855,35.3048780488,-579,-52.1341463415,3155,-192.3780487805,-101,0.4391304348,1,0.0043478261,166,-0.8097560976
11857997,19550.78125,20352,-12.4782342121,-14704,-9.0153280196,-18816,11.5364806867,975,45.9146341463,-753,-59.4512195122,2900,-176.8292682927,-94,0.4086956522,-6,-0.0260869565,170,-0.8292682927
11858637,19570.3125,20432,-12.5272838749,-14464,-8.8681790313,-19744,12.105456775,975,45.9146341463,-753,-59.4512195122,2900,-176.8292682927,-94,0.4086956522,-1,-0.0043478261,168,-0.8195121951
11859277,19589.84375,19264,-11.8111587983,-14384,-8.8191293685,-20464,12.54690374,1666,56.9512195122,-934,-101.5853658537,2764,-168.5365853659,-86,0.3739130435,-4,-0.0173913043,169,-0.8243902439
11859917,19609.375,18256,-11.1931330472,-14912,-9.1428571429,-21232,13.0177805028,2075,67.8048780488,-1112,-126.5243902439,2598,-158.4146341463,-80,0.347826087,-9,-0.0391304348,173,-0.843902439
11860557,19628.90625,17280,-10.5947271613,-15216,-9.3292458614,-21920,13.4396076027,2075,67.8048780488,-1112,-126.5243902439,2598,-158.4146341463,-73,0.3173913043,-11,-0.047826087,172,-0.8390243902
11861197,19648.4375,14256,-8.740649908,-15168,-9.2998160638,-22400,13.7339055794,2337,78.7804878049,-1292,-142.5,2364,-144.1463414634,-67,0.2913043478,-13,-0.0565217391,171,-0.8341463415
11861837,19667.96875,12864,-7.8871857756,-15392,-9.4371551196,-22960,14.0772532189,1733,94.9390243902,-1557,-105.6707317073,2013,-122.743902439,-63,0.2739130435,-14,-0.0608695652,171,-0.8341463415
11862477,19687.5,14240,-8.7308399755,-15664,-9.603923973,-22480,13.7829552422,1733,94.9390243902,-1557,-105.6707317073,2013,-122.743902439,-59,0.2565217391,-22,-0.0956521739,172,-0.8390243902
11863117,19707.03125,13136,-8.0539546291,-15104,-9.2605763335,-22016,13.498467198,2132,109.756097561,-1800,-130,1736,-105.8536585366,-52,0.2260869565,-27,-0.1173913043,171,-0.8341463415
11863757,19726.5625,10336,-6.3372164316,-14752,-9.0447578173,-21680,13.2924586143,2132,109.756097561,-1800,-130,1736,-105.8536585366,-50,0.2173913043,-27,-0.1173913043,171,-0.8341463415
11864397,19746.09375,10048,-6.1606376456,-14576,-8.9368485592,-21584,13.233599019,1602,124.1463414634,-2036,-97.6829268293,1441,-87.8658536585,-43,0.1869565217,-39,-0.1695652174,170,-0.8292682927
11865037,19765.625,10624,-6.5137952177,-13808,-8.4659717964,-20800,12.7529123237,1472,139.5731707317,-2289,-89.756097561,1118,-68.1707317073,-40,0.1739130435,-39,-0.1695652174,170,-0.8292682927
11865677,19785.15625,9120,-5.5916615573,-12704,-7.78908645,-20000,12.2624156959,1472,139.5731707317,-2289,-89.756097561,1118,-68.1707317073,-37,0.1608695652,-47,-0.2043478261,169,-0.8243902439
11866317,19804.6875,7856,-4.8166768853,-11920,-7.3083997548,-19200,11.7719190681,1315,148.4146341463,-2434,-80.1829268293,917,-55.9146341463,-34,0.147826087,-57,-0.247826087,168,-0.8195121951
11866957,19824.21875,8096,-4.9638258737,-11104,-6.8080931944,-18064,11.0754138565,1315,148.4146341463,-2434,-80.1829268293,917,-55.9146341463,-32,0.1391304348,-66,-0.2869565217,165,-0.8048780488
11867597,19843.75,7216,-4.4242795831,-10256,-6.2881667689,-17712,10.8595953403,1195,154.9390243902,-2541,-72.8658536585,693,-42.256097561,-29,0.1260869565,-66,-0.2869565217,162,-0.7902439024
11868237,19863.28125,5728,-3.5119558553,-9440,-5.7878602085,-17248,10.5751072961,1054,157.987804878,-2591,-64.2682926829,527,-32.1341463415,-25,0.1086956522,-74,-0.3217391304,159,-0.7756097561
11868877,19882.8125,5472,-3.3549969344,-8592,-5.267933783,-16432,10.0748007357,1054,157.987804878,-2591,-64.2682926829,527,-32.1341463415,-24,0.1043478261,-74,-0.3217391304,157,-0.7658536585
11869517,19902.34375,5616,-3.4432863274,-7760,-4.75781729,-15568,9.5450643777,843,161.8292682927,-2654,-51.4024390244,316,-19.2682926829,-21,0.0913043478,-87,-0.3782608696,155,-0.756097561
11870157,19921.875,4672,-2.8645003066,-6400,-3.9239730227,-14880,9.1232372777,843,161.8292682927,-2654,-51.4024390244,316,-19.2682926829,-20,0.0869565217,-89,-0.3869565217,150,-0.7317073171
11870797,19941.40625,4080,-2.501532802,-5648,-3.4629061925,-14160,8.6817903127,831,159.2073170732,-2611,-50.6707317073,167,-10.1829268293,-18,0.0782608696,-96,-0.4173913043,146,-0.712195122
11871437,19960.9375,3984,-2.4426732066,-4640,-2.8448804414,-13280,8.1422440221,533,157.987804878,-2591,-32.5,-68,4.1463414634,-18,0.0782608696,-101,-0.4391304348,143,-0.6975609756
11872077,19980.46875,4112,-2.5211526671,-3680,-2.256284488,-12224,7.4947884733,533,157.987804878,-2591,-32.5,-68,4.1463414634,-16,0.0695652174,-107,-0.4652173913,138,-0.6731707317
11872717,20000,3440,-2.1091354997,-2432,-1.4911097486,-11472,7.0337216432,522,153.7804878049,-2522,-31.8292682927,-300,18.2926829268,-14,0.0608695652,-110,-0.4782608696,135,-0.6585365854
11873357,20019.53125,3136,-1.9227467811,-1424,-0.8730839975,-10736,6.5824647456,470,148.8414634146,-2441,-28.6585365854,-542,33.0487804878,-13,0.0565217391,-113,-0.4913043478,128,-0.6243902439
11873997,20039.0625,3152,-1.9325567137,-592,-0.3629675046,-9888,6.06253832,470,148.8414634146,-2441,-28.6585365854,-542,33.0487804878,-11,0.047826087,-112,-0.4869565217,126,-0.6146341463
11874637,20058.59375,2768,-1.6971183323,384,0.2354383814,-9344,5.7290006131,591,141.4634146341,-2320,-36.0365853659,-764,46.5853658537,-7,0.0304347826,-114,-0.4956521739,120,-0.5853658537
11875277,20078.125,2256,-1.3832004905,1216,0.7455548743,-8320,5.1011649295,591,141.4634146341,-2320,-36.0365853659,-764,46.5853658537,-5,0.0217391304,-120,-0.5217391304,116,-0.5658536585
11875917,20097.65625,1600,-0.9809932557,2208,1.3537706928,-7728,4.7381974249,714,134.8170731707,-2211,-43.5365853659,-979,59.6951219512,-2,0.0086956522,-120,-0.5217391304,109,-0.5317073171
11876557,20117.1875,880,-0.5395462906,2880,1.7657878602,-7280,4.4635193133,792,126.9512195122,-2082,-48.2926829268,-1182,72.0731707317,-1,0.0043478261,-116,-0.5043478261,106,-0.5170731707
11877197,20136.71875,256,-0.1569589209,3456,2.1189454323,-6736,4.1299816064,792,126.9512195122,-2082,-48.2926829268,-1182,72.0731707317,3,-0.0130434783,-120,-0.5217391304,102,-0.4975609756
11877837,20156.25,-688,0.4218270999,3920,2.4034334764,-6432,3.9435928878,841,118.9024390244,-1950,-51.2804878049,-1383,84.3292682927,6,-0.0260869565,-118,-0.5130434783,96,-0.4682926829
11878477,20175.78125,-1504,0.9221336603,4272,2.6192519926,-5680,3.4825260576,841,118.9024390244,-1950,-51.2804878049,-1383,84.3292682927,8,-0.0347826087,-114,-0.4956521739,90,-0.4390243902
11879117,20195.3125,-2496,1.5303494788,4624,2.8350705089,-4912,3.0116492949,798,113.3536585366,-1859,-48.6585365854,-1545,94.2073170732,12,-0.052173913,-111,-0.4826086957,84,-0.4097560976
11879757,20214.84375,-3328,2.0404659718,5216,3.1980380135,-4208,2.5800122624,562,103.3536585366,-1695,-34.2682926829,-1717,104.6951219512,13,-0.0565217391,-109,-0.4739130435,82,-0.4
11880397,20234.375,-3728,2.2857142857,5792,3.5511955855,-3616,2.2170447578,562,103.3536585366,-1695,-34.2682926829,-1717,104.6951219512,15,-0.0652173913,-107,-0.4652173913,78,-0.3804878049
11881037,20253.90625,-4144,2.5407725322,6016,3.6885346413,-3376,2.0698957695,412,89.0853658537,-1461,-25.1219512195,-1849,112.743902439,20,-0.0869565217,-103,-0.447826087,75,-0.3658536585
11881677,20273.4375,-4864,2.9822194972,6032,3.6983445739,-3120,1.9129368486,292,72.8658536585,-1195,-17.8048780488,-1914,116.7073170732,19,-0.0826086957,-95,-0.4130434783,70,-0.3414634146
11882317,20292.96875,-5600,3.4334763948,6272,3.8454935622,-2640,1.6186388719,292,72.8658536585,-1195,-17.8048780488,-1914,116.7073170732,19,-0.0826086957,-99,-0.4304347826,71,-0.3463414634
11882957,20312.5,-5984,3.6689147762,6368,3.9043531576,-2400,1.4714898835,176,55.1219512195,-904,-10.7317073171,-1929,117.6219512195,24,-0.1043478261,-90,-0.3913043478,68,-0.3317073171
11883597,20332.03125,-6368,3.9043531576,6048,3.7081545064,-2208,1.3537706928,176,55.1219512195,-904,-10.7317073171,-1929,117.6219512195,27,-0.1173913043,-90,-0.3913043478,66,-0.3219512195
11884237,20351.5625,-6928,4.2477007971,5408,3.3157572042,-2384,1.461679951,30,38.0487804878,-624,-1.8292682927,-1923,117.256097561,26,-0.1130434783,-83,-0.3608695652,65,-0.3170731707
11884877,20371.09375,-7056,4.3261802575,5088,3.119558553,-2592,1.5892090742,-382,22.987804878,-377,23.2926829268,-1946,118.6585365854,28,-0.1217391304,-77,-0.3347826087,66,-0.3219512195
11885517,20390.625,-6656,4.0809319436,4800,2.942979767,-2352,1.4420600858,-382,22.987804878,-377,23.2926829268,-1946,118.6585365854,30,-0.1304347826,-71,-0.3086956522,67,-0.3268292683
11886157,20410.15625,-6464,3.9632127529,4096,2.5113427345,-2560,1.5695892091,-644,7.0731707317,-116,39.2682926829,-1977,120.5487804878,31,-0.1347826087,-72,-0.3130434783,67,-0.3268292683
11886797,20429.6875,-6528,4.0024524831,3216,1.9717964439,-2976,1.8246474555,-644,7.0731707317,-116,39.2682926829,-1977,120.5487804878,31,-0.1347826087,-64,-0.2782608696,69,-0.3365853659
11887437,20449.21875,-6976,4.2771305947,2480,1.5205395463,-3856,2.3641937462,-942,-8.9024390244,146,57.4390243902,-2066,125.9756097561,32,-0.1391304348,-59,-0.2565217391,70,-0.3414634146
11888077,20468.75,-7824,4.7970570202,1600,0.9809932557,-4480,2.7467811159,-1354,-21.2195121951,348,82.5609756098,-2108,128.5365853659,30,-0.1304347826,-50,-0.2173913043,73,-0.356097561
11888717,20488.28125,-7984,4.8951563458,720,0.4414469651,-4544,2.7860208461,-1354,-21.2195121951,348,82.5609756098,-2108,128.5365853659,33,-0.1434782609,-54,-0.2347826087,78,-0.3804878049
11889357,20507.8125,-7248,4.4438994482,256,0.1569589209,-5472,3.3549969344,-2178,-36.8292682927,604,132.8048780488,-2235,136.2804878049,32,-0.1391304348,-46,-0.2,85,-0.4146341463
11889997,20527.34375,-6288,3.8553034948,-336,-0.2060085837,-6592,4.0416922134,-2178,-36.8292682927,604,132.8048780488,-2235,136.2804878049,28,-0.1217391304,-38,-0.1652173913,86,-0.4195121951
11890637,20546.875,-6304,3.8651134273,-1504,-0.9221336603,-7936,4.8657265481,-2384,-62.987804878,1033,145.3658536585,-2216,135.1219512195,26,-0.1130434783,-31,-0.1347826087,94,-0.4585365854
11891277,20566.40625,-5312,3.2568976088,-3536,-2.167995095,-8160,5.0030656039,-2451,-89.3292682927,1465,149.4512195122,-2178,132.8048780488,24,-0.1043478261,-29,-0.1260869565,97,-0.4731707317
11891917,20585.9375,-3696,2.2660944206,-5184,-3.1784181484,-9232,5.6603310852,-2451,-89.3292682927,1465,149.4512195122,-2178,132.8048780488,20,-0.0869565217,-21,-0.0913043478,104,-0.5073170732
11892557,20605.46875,-2944,1.8050275904,-5488,-3.364806867,-12176,7.4653586757,-2357,-108.4146341463,1778,143.7195121951,-2069,126.1585365854,16,-0.0695652174,-14,-0.0608695652,106,-0.5170731707
11893197,20625,-2704,1.6578786021,-5920,-3.629675046,-13312,8.1618638872,-1955,-123.7804878049,2030,119.2073170732,-1924,117.3170731707,13,-0.0565217391,-11,-0.047826087,111,-0.5414634146
11893837,20644.53125,-2080,1.2752912324,-8336,-5.110974862,-13856,8.4954015941,-1955,-123.7804878049,2030,119.2073170732,-1924,117.3170731707,12,-0.052173913,-8,-0.0347826087,113,-0.5512195122
11894477,20664.0625,-2384,1.461679951,-10736,-6.5824647456,-13952,8.5542611895,-1838,-130.3658536585,2138,112.0731707317,-1888,115.1219512195,6,-0.0260869565,3,0.0130434783,116,-0.5658536585
11895117,20683.59375,-1856,1.1379521766,-10672,-6.5432250153,-16816,10.3102391171,-1838,-130.3658536585,2138,112.0731707317,-1888,115.1219512195,1,-0.0043478261,8,0.0347826087,116,-0.5658536585
11895757,20703.125,256,-0.1569589209,-11504,-7.0533415083,-18656,11.4383813611,-1451,-125.6097560976,2060,88.4756097561,-1894,115.487804878,-2,0.0086956522,9,0.0391304348,118,-0.5756097561
11896397,20722.65625,16,-0.0098099326,-13472,-8.2599632128,-19552,11.9877375843,-914,-118.5365853659,1944,55.7317073171,-1859,113.3536585366,-6,0.0260869565,15,0.0652173913,118,-0.5756097561
11897037,20742.1875,-2064,1.2654812998,-14816,-9.0839975475,-20688,12.6842427958,-914,-118.5365853659,1944,55.7317073171,-1859,113.3536585366,-12,0.052173913,22,0.0956521739,116,-0.5658536585
11897677,20761.71875,-1056,0.6474555487,-14320,-8.7798896383,-22304,13.6750459841,-1233,-100.8536585366,1654,75.1829268293,-1920,117.0731707317,-15,0.0652173913,24,0.1043478261,115,-0.5609756098
11898317,20781.25,352,-0.2158185162,-14192,-8.7014101778,-23952,14.6854690374,-1233,-100.8536585366,1654,75.1829268293,-1920,117.0731707317,-17,0.0739130435,27,0.1173913043,115,-0.5609756098
11898957,20800.78125,-560,0.3433476395,-14576,-8.9368485592,-24112,14.783568363,-954,-82.743902439,1357,58.1707317073,-1792,109.2682926829,-23,0.1,32,0.1391304348,113,-0.5512195122
11899597,20820.3125,-928,0.5689760883,-15296,-9.3782955242,-23632,14.4892703863,-1427,-64.8780487805,1064,87.012195122,-1780,108.5365853659,-26,0.1130434783,35,0.152173913,114,-0.556097561
11900237,20839.84375,224,-0.1373390558,-15472,-9.4862047823,-23824,14.6069895769,-1427,-64.8780487805,1064,87.012195122,-1780,108.5365853659,-28,0.1217391304,35,0.152173913,114,-0.556097561
11900877,20859.375,1664,-1.0202329859,-16416,-10.0649908032,-23504,14.4107909258,-1575,-49.756097561,816,96.0365853659,-1742,106.2195121951,-37,0.1608695652,40,0.1739130435,115,-0.5609756098
11901517,20878.90625,1776,-1.0889025138,-17424,-10.6830165543,-23600,14.4696505212,-1558,-34.756097561,570,95,-1780,108.5365853659,-38,0.1652173913,41,0.1782608696,113,-0.5512195122
11902157,20898.4375,2416,-1.4812998161,-17920,-10.9871244635,-23200,14.2244022072,-1558,-34.756097561,570,95,-1780,108.5365853659,-45,0.1956521739,45,0.1956521739,113,-0.5512195122
11902797,20917.96875,3600,-2.2072348253,-17568,-10.7713059473,-23408,14.3519313305,-1247,-19.512195122,320,76.0365853659,-1873,114.2073170732,-48,0.2086956522,40,0.1739130435,115,-0.5609756098
11903437,20937.5,3728,-2.2857142857,-16800,-10.3004291845,-23872,14.6364193746,-1247,-19.512195122,320,76.0365853659,-1873,114.2073170732,-53,0.2304347826,44,0.1913043478,114,-0.556097561
11904077,20957.03125,2304,-1.4126302882,-16400,-10.0551808706,-23888,14.6462293072,-677,-2.3170731707,38,41.2804878049,-1822,111.0975609756,-54,0.2347826087,44,0.1913043478,114,-0.556097561
11904717,20976.5625,1584,-0.9711833231,-15488,-9.4960147149,-24144,14.8031882281,-717,21.2804878049,-349,43.7195121951,-1835,111.8902439024,-58,0.252173913,50,0.2173913043,114,-0.556097561
11905357,20996.09375,2368,-1.4518700184,-14848,-9.1036174126,-23792,14.5873697118,-717,21.2804878049,-349,43.7195121951,-1835,111.8902439024,-62,0.2695652174,50,0.2173913043,116,-0.5658536585
11905997,21015.625,2944,-1.8050275904,-14736,-9.0349478847,-23936,14.6756591048,-235,43.4146341463,-712,14.3292682927,-1756,107.0731707317,-66,0.2869565217,52,0.2260869565,116,-0.5658536585
11906637,21035.15625,2416,-1.4812998161,-14176,-8.6916002452,-24128,14.7933782955,-235,43.4146341463,-712,14.3292682927,-1756,107.0731707317,-67,0.2913043478,44,0.1913043478,119,-0.5804878049
11907277,21054.6875,2672,-1.638258737,-13824,-8.475781729,-24640,15.1072961373,187,65.243902439,-1070,-11.4024390244,-1655,100.9146341463,-70,0.3043478261,43,0.1869565217,121,-0.5902439024
11907917,21074.21875,2256,-1.3832004905,-13776,-8.4463519313,-24368,14.9405272839,595,91.6463414634,-1503,-36.2804878049,-1443,87.987804878,-74,0.3217391304,47,0.2043478261,122,-0.5951219512
11908557,21093.75,352,-0.2158185162,-13968,-8.564071122,-23552,14.4402207235,595,91.6463414634,-1503,-36.2804878049,-1443,87.987804878,-75,0.3260869565,43,0.1869565217,125,-0.6097560976
11909197,21113.28125,672,-0.4120171674,-13616,-8.3482526058,-22400,13.7339055794,-8,118.1707317073,-1938,0.487804878,-1400,85.3658536585,-75,0.3260869565,40,0.1739130435,129,-0.6292682927
11909837,21132.8125,2704,-1.6578786021,-13232,-8.1128142244,-21392,13.1158798283,-8,118.1707317073,-1938,0.487804878,-1400,85.3658536585,-77,0.3347826087,42,0.1826086957,132,-0.643902439
11910477,21152.34375,2720,-1.6676885346,-12816,-7.8577559779,-19968,12.2427958308,-40,133.3536585366,-2187,2.4390243902,-1291,78.7195121951,-77,0.3347826087,40,0.1739130435,135,-0.6585365854
11911117,21171.875,1328,-0.8142244022,-12160,-7.4555487431,-17552,10.7614960147,-378,143.4756097561,-2353,23.0487804878,-1197,72.987804878,-81,0.352173913,36,0.1565217391,139,-0.6780487805
11911757,21191.40625,1648,-1.0104230533,-11440,-7.0141017781,-15696,9.6235438381,-378,143.4756097561,-2353,23.0487804878,-1197,72.987804878,-85,0.3695652174,33,0.1434782609,143,-0.6975609756
11912397,21210.9375,2672,-1.638258737,-10352,-6.3470263642,-13872,8.5052115267,-887,150.1219512195,-2462,54.0853658537,-1164,70.9756097561,-84,0.3652173913,31,0.1347826087,145,-0.7073170732
11913037,21230.46875,2896,-1.7755977928,-9248,-5.6701410178,-12480,7.6517473942,-712,148.3536585366,-2433,43.4146341463,-1032,62.9268292683,-91,0.3956521739,28,0.1217391304,149,-0.7268292683
11913677,21250,2688,-1.6480686695,-8128,-4.9834457388,-11200,6.8669527897,-712,148.3536585366,-2433,43.4146341463,-1032,62.9268292683,-90,0.3913043478,20,0.0869565217,153,-0.7463414634
11914317,21269.53125,1664,-1.0202329859,-7024,-4.3065603924,-10128,6.2096873084,-470,142.8048780488,-2342,28.6585365854,-798,48.6585365854,-93,0.4043478261,20,0.0869565217,155,-0.756097561
11914957,21289.0625,832,-0.5101164929,-5584,-3.4236664623,-8560,5.2483139178,-470,142.8048780488,-2342,28.6585365854,-798,48.6585365854,-96,0.4173913043,18,0.0782608696,157,-0.7658536585
11915597,21308.59375,784,-0.4806866953,-3984,-2.4426732066,-6912,4.2378908645,-421,133.0487804878,-2182,25.6707317073,-487,29.6951219512,-96,0.4173913043,14,0.0608695652,160,-0.7804878049
11916237,21328.125,336,-0.2060085837,-2592,-1.5892090742,-6576,4.0318822808,-193,124.5731707317,-2043,11.7682926829,-46,2.8048780488,-95,0.4130434783,11,0.047826087,162,-0.7902439024
11916877,21347.65625,-528,0.3237277744,-1376,-0.8436541999,-6352,3.894543225,-193,124.5731707317,-2043,11.7682926829,-46,2.8048780488,-97,0.4217391304,6,0.0260869565,165,-0.8048780488
11917517,21367.1875,-864,0.5297363581,-384,-0.2354383814,-5952,3.6492949111,-150,115.5487804878,-1895,9.1463414634,387,-23.5975609756,-96,0.4173913043,-3,-0.0130434783,166,-0.8097560976
11918157,21386.71875,-640,0.3923973023,560,0.3433476395,-6000,3.6787247088,-150,115.5487804878,-1895,9.1463414634,387,-23.5975609756,-95,0.4130434783,-4,-0.0173913043,168,-0.8195121951
11918797,21406.25,-464,0.2844880441,912,0.5591661557,-5536,3.3942366646,-275,103.0487804878,-1690,16.7682926829,748,-45.6097560976,-97,0.4217391304,-9,-0.0391304348,169,-0.8243902439
11919437,21425.78125,-432,0.264868179,1232,0.7553648069,-4928,3.0214592275,-395,92.256097561,-1513,24.0853658537,1088,-66.3414634146,-99,0.4304347826,-8,-0.0347826087,170,-0.8292682927
11920077,21445.3125,160,-0.0980993256,1584,0.9711833231,-4896,3.0018393624,-395,92.256097561,-1513,24.0853658537,1088,-66.3414634146,-96,0.4173913043,-14,-0.0608695652,171,-0.8341463415
11920717,21464.84375,784,-0.4806866953,1680,1.0300429185,-5008,3.0705088903,-446,81.5853658537,-1338,27.1951219512,1410,-85.9756097561,-96,0.4173913043,-17,-0.0739130435,173,-0.843902439
11921357,21484.375,1072,-0.6572654813,1152,0.7063151441,-4784,2.9331698345,-628,70,-1148,38.2926829268,1639,-99.9390243902,-97,0.4217391304,-17,-0.0739130435,172,-0.8390243902
11921997,21503.90625,1440,-0.8828939301,304,0.1863887186,-4416,2.7075413857,-628,70,-1148,38.2926829268,1639,-99.9390243902,-100,0.4347826087,-19,-0.0826086957,173,-0.843902439
11922637,21523.4375,2080,-1.2752912324,-192,-0.1177191907,-3632,2.2268546904,-776,59.8170731707,-981,47.3170731707,1853,-112.987804878,-102,0.4434782609,-22,-0.0956521739,173,-0.843902439
11923277,21542.96875,3040,-1.8638871858,-112,-0.0686695279,-2928,1.7952176579,-776,59.8170731707,-981,47.3170731707,1853,-112.987804878,-103,0.447826087,-24,-0.1043478261,174,-0.8487804878
11923917,21562.5,4016,-2.4622930717,-464,-0.2844880441,-3200,1.9619865113,-638,47.6219512195,-781,38.9024390244,2144,-130.7317073171,-103,0.447826087,-25,-0.1086956522,173,-0.843902439
11924557,21582.03125,4240,-2.5996321275,-1552,-0.951563458,-3536,2.167995095,-527,37.4390243902,-614,32.1341463415,2355,-143.5975609756,-105,0.4565217391,-26,-0.1130434783,172,-0.8390243902
11925197,21601.5625,4352,-2.6683016554,-2480,-1.5205395463,-3232,1.9816063765,-527,37.4390243902,-614,32.1341463415,2355,-143.5975609756,-107,0.4652173913,-21,-0.0913043478,173,-0.843902439
11925837,21621.09375,5664,-3.4727161251,-2768,-1.6971183323,-3376,2.0698957695,-735,27.012195122,-443,44.8170731707,2540,-154.8780487805,-109,0.4739130435,-21,-0.0913043478,173,-0.843902439
11926477,21640.625,7200,-4.4144696505,-3296,-2.0208461067,-3744,2.2955242183,-735,27.012195122,-443,44.8170731707,2540,-154.8780487805,-110,0.4782608696,-15,-0.0652173913,170,-0.8292682927
11927117,21660.15625,7616,-4.669527897,-4720,-2.8939301042,-3808,2.3347639485,-496,20.1829268293,-331,30.243902439,2825,-172.256097561,-110,0.4782608696,-23,-0.1,171,-0.8341463415
11927757,21679.6875,8560,-5.2483139178,-6064,-3.717964439,-3856,2.3641937462,-554,13.6585365854,-224,33.7804878049,3029,-184.6951219512,-111,0.4826086957,-17,-0.0739130435,169,-0.8243902439
11928397,21699.21875,10544,-6.4647455549,-7072,-4.3359901901,-4704,2.8841201717,-554,13.6585365854,-224,33.7804878049,3029,-184.6951219512,-115,0.5,-15,-0.0652173913,169,-0.8243902439
11929037,21718.75,11648,-7.1416309013,-8320,-5.1011649295,-5776,3.541385653,-162,3.4756097561,-57,9.8780487805,3276,-199.756097561,-111,0.4826086957,-12,-0.052173913,167,-0.8146341463
11929677,21738.28125,11632,-7.1318209687,-10448,-6.4058859595,-6400,3.9239730227,-162,3.4756097561,-57,9.8780487805,3276,-199.756097561,-108,0.4695652174,-14,-0.0608695652,170,-0.8292682927
11930317,21757.8125,12512,-7.6713672594,-12752,-7.8185162477,-7344,4.5027590435,49,-5.243902439,86,-2.987804878,3471,-211.6463414634,-109,0.4739130435,-9,-0.0391304348,168,-0.8195121951
11930957,21777.34375,14096,-8.6425505825,-14496,-8.8877988964,-8864,5.4347026364,226,-6.4634146341,106,-13.7804878049,3699,-225.5487804878,-106,0.4608695652,-8,-0.0347826087,168,-0.8195121951
11931597,21796.875,14656,-8.9858982219,-14912,-9.1428571429,-10672,6.5432250153,226,-6.4634146341,106,-13.7804878049,3699,-225.5487804878,-106,0.4608695652,-9,-0.0391304348,168,-0.8195121951
11932237,21816.40625,14656,-8.9858982219,-14416,-8.8387492336,-13120,8.0441446965,489,-3.1097560976,51,-29.8170731707,3775,-230.1829268293,-101,0.4391304348,-5,-0.0217391304,168,-0.8195121951
11932877,21835.9375,15648,-9.5941140405,-14816,-9.0839975475,-15344,9.4077253219,602,-0.9146341463,15,-36.7073170732,3846,-234.512195122,-99,0.4304347826,0,0,167,-0.8146341463
11933517,21855.46875,16800,-10.3004291845,-15648,-9.5941140405,-17184,10.5358675659,602,-0.9146341463,15,-36.7073170732,3846,-234.512195122,-93,0.4043478261,-5,-0.0217391304,168,-0.8195121951
11934157,21875,16720,-10.2513795218,-16848,-10.3298589822,-19120,11.7228694053,1193,5.7317073171,-94,-72.743902439,3883,-236.7682926829,-92,0.4,3,0.0130434783,166,-0.8097560976
11934797,21894.53125,16160,-9.9080318823,-18048,-11.065603924,-20720,12.7038626609,1193,5.7317073171,-94,-72.743902439,3883,-236.7682926829,-85,0.3695652174,2,0.0086956522,165,-0.8048780488
11935437,21914.0625,15904,-9.7510729614,-19136,-11.7326793378,-22384,13.7240956468,1223,12.3170731707,-202,-74.5731707317,3752,-228.7804878049,-82,0.3565217391,-1,-0.0043478261,167,-0.8146341463
11936077,21933.59375,15744,-9.6529736358,-19328,-11.8503985285,-23600,14.4696505212,1154,31.5243902439,-517,-70.3658536585,3345,-203.9634146341,-75,0.3260869565,3,0.0130434783,165,-0.8048780488
11936717,21953.125,15536,-9.5254445126,-19600,-12.017167382,-24544,15.048436542,1154,31.5243902439,-517,-70.3658536585,3345,-203.9634146341,-71,0.3086956522,2,0.0086956522,168,-0.8195121951
11937357,21972.65625,14624,-8.9662783568,-19584,-12.0073574494,-25152,15.4212139792,1073,51.7682926829,-849,-65.4268292683,2845,-173.4756097561,-66,0.2869565217,-6,-0.0260869565,166,-0.8097560976
11937997,21992.1875,12672,-7.7694665849,-19264,-11.8111587983,-25904,15.8822808093,1073,51.7682926829,-849,-65.4268292683,2845,-173.4756097561,-62,0.2695652174,-2,-0.0086956522,167,-0.8146341463
11938637,22011.71875,12160,-7.4555487431,-18944,-11.6149601471,-25104,15.3917841815,66,80.3658536585,-1318,-4.0243902439,2155,-131.4024390244,-60,0.2608695652,-16,-0.0695652174,169,-0.8243902439
11939277,22031.25,14336,-8.7896995708,-19264,-11.8111587983,-23056,14.1361128142,-355,113.5975609756,-1863,21.6463414634,1601,-97.6219512195,-60,0.2608695652,-15,-0.0652173913,169,-0.8243902439
11939917,22050.78125,15984,-9.8001226242,-18432,-11.3010423053,-22352,13.7044757817,-355,113.5975609756,-1863,21.6463414634,1601,-97.6219512195,-59,0.2565217391,-20,-0.0869565217,171,-0.8341463415
11940557,22070.3125,13872,-8.5052115267,-17584,-10.7811158798,-22480,13.7829552422,826,131.7682926829,-2161,-50.3658536585,1409,-85.9146341463,-58,0.252173913,-26,-0.1130434783,174,-0.8487804878
11941197,22089.84375,12352,-7.5732679338,-17584,-10.7811158798,-22736,13.9399141631,672,147.4390243902,-2418,-40.9756097561,1200,-73.1707317073,-56,0.2434782609,-34,-0.147826087,174,-0.8487804878
11941837,22109.375,11680,-7.1612507664,-16896,-10.3592887799,-21584,13.233599019,672,147.4390243902,-2418,-40.9756097561,1200,-73.1707317073,-54,0.2347826087,-32,-0.1391304348,173,-0.843902439
11942477,22128.90625,11216,-6.8767627223,-16096,-9.8687921521,-19584,12.0073574494,260,163.9024390244,-2688,-15.8536585366,898,-54.756097561,-52,0.2260869565,-47,-0.2043478261,173,-0.843902439
11943117,22148.4375,11728,-7.1906805641,-14992,-9.1919068056,-18096,11.0950337216,260,163.9024390244,-2688,-15.8536585366,898,-54.756097561,-53,0.2304347826,-53,-0.2304347826,174,-0.8487804878
11943757,22167.96875,11600,-7.1122011036,-13648,-8.3678724709,-17120,10.4966278357,363,175.6097560976,-2880,-22.1341463415,561,-34.2073170732,-53,0.2304347826,-61,-0.2652173913,172,-0.8390243902
11944397,22187.5,10768,-6.6020846107,-12432,-7.6223175966,-16128,9.8884120172,492,177.8658536585,-2917,-30,208,-12.6829268293,-51,0.2217391304,-64,-0.2782608696,172,-0.8390243902
11945037,22207.03125,10144,-6.219497241,-11344,-6.9552421827,-14560,8.9270386266,492,177.8658536585,-2917,-30,208,-12.6829268293,-48,0.2086956522,-76,-0.3304347826,170,-0.8292682927
11945677,22226.5625,10320,-6.3274064991,-10224,-6.2685469037,-13216,8.1030042918,740,178.5365853659,-2928,-45.1219512195,-51,3.1097560976,-47,0.2043478261,-76,-0.3304347826,168,-0.8195121951
11946317,22246.09375,9376,-5.7486204782,-8672,-5.3169834457,-12240,7.5045984059,740,178.5365853659,-2928,-45.1219512195,-51,3.1097560976,-44,0.1913043478,-85,-0.3695652174,165,-0.8048780488
11946957,22265.625,7936,-4.8657265481,-7312,-4.4831391784,-11184,6.8571428571,1239,173.0487804878,-2838,-75.5487804878,-137,8.3536585366,-41,0.1782608696,-93,-0.4043478261,164,-0.8
11947597,22285.15625,7200,-4.4144696505,-5936,-3.6394849785,-10656,6.5334150828,1304,164.8780487805,-2704,-79.512195122,-274,16.7073170732,-39,0.1695652174,-97,-0.4217391304,155,-0.756097561
11948237,22304.6875,7712,-4.7283874923,-4624,-2.8350705089,-9920,6.0821581852,1304,164.8780487805,-2704,-79.512195122,-274,16.7073170732,-36,0.1565217391,-102,-0.4434782609,153,-0.7463414634
11948877,22324.21875,6768,-4.1496014715,-3344,-2.0502759044,-9216,5.6505211527,1895,154.6951219512,-2537,-115.5487804878,-349,21.2804878049,-32,0.1391304348,-101,-0.4391304348,149,-0.7268292683
11949517,22343.75,4528,-2.7762109135,-2160,-1.3243408952,-8880,5.444512569,1895,154.6951219512,-2537,-115.5487804878,-349,21.2804878049,-25,0.1086956522,-112,-0.4869565217,143,-0.6975609756
11950157,22363.28125,3680,-2.256284488,-720,-0.4414469651,-8704,5.3366033109,2084,141.7073170732,-2324,-127.0731707317,-396,24.1463414634,-22,0.0956521739,-110,-0.4782608696,138,-0.6731707317
11950797,22382.8125,4176,-2.5603923973,576,0.353157572,-8064,4.9442060086,2056,132.3780487805,-2171,-125.3658536585,-509,31.0365853659,-19,0.0826086957,-114,-0.4956521739,129,-0.6292682927
11951437,22402.34375,3168,-1.9423666462,1760,1.0790925812,-7936,4.8657265481,2056,132.3780487805,-2171,-125.3658536585,-509,31.0365853659,-18,0.0782608696,-119,-0.5173913043,127,-0.6195121951
11952077,22421.875,1312,-0.8044144697,2752,1.6873083998,-7568,4.6400980993,2377,118.1707317073,-1938,-144.9390243902,-534,32.5609756098,-11,0.047826087,-121,-0.5260869565,117,-0.5707317073
11952717,22441.40625,-144,0.088289393,3776,2.3151440834,-6992,4.2869405273,1968,111.7073170732,-1832,-120,-628,38.2926829268,-10,0.0434782609,-117,-0.5086956522,111,-0.5414634146
11953357,22460.9375,-688,0.4218270999,4640,2.8448804414,-6768,4.1496014715,1968,111.7073170732,-1832,-120,-628,38.2926829268,-4,0.0173913043,-123,-0.5347826087,103,-0.5024390244
11953997,22480.46875,-752,0.4610668302,5216,3.1980380135,-6720,4.1201716738,1549,102.3780487805,-1679,-94.4512195122,-711,43.3536585366,-4,0.0173913043,-124,-0.5391304348,100,-0.487804878
11954637,22500,-1344,0.8240343348,5552,3.4040465972,-6464,3.9632127529,1549,102.3780487805,-1679,-94.4512195122,-711,43.3536585366,2,-0.0086956522,-119,-0.5173913043,93,-0.4536585366
11955277,22519.53125,-2064,1.2654812998,6048,3.7081545064,-6080,3.7277743716,1177,92.987804878,-1525,-71.7682926829,-786,47.9268292683,3,-0.0130434783,-124,-0.5391304348,89,-0.4341463415
11955917,22539.0625,-2224,1.3635806254,6592,4.0416922134,-5616,3.4432863274,582,85.243902439,-1398,-35.487804878,-941,57.3780487805,3,-0.0130434783,-117,-0.5086956522,84,-0.4097560976
11956557,22558.59375,-2224,1.3635806254,6928,4.2477007971,-5504,3.3746167995,582,85.243902439,-1398,-35.487804878,-941,57.3780487805,5,-0.0217391304,-119,-0.5173913043,83,-0.4048780488
11957197,22578.125,-2112,1.2949110975,6928,4.2477007971,-5136,3.1489883507,53,76.7073170732,-1258,-3.2317073171,-1129,68.8414634146,7,-0.0304347826,-115,-0.5,78,-0.3804878049
11957837,22597.65625,-2032,1.2458614347,6864,4.2084610668,-4832,2.9625996321,53,76.7073170732,-1258,-3.2317073171,-1129,68.8414634146,9,-0.0391304348,-118,-0.5130434783,77,-0.3756097561
11958477,22617.1875,-1712,1.0496627836,6624,4.0613120785,-4576,2.8056407112,-264,67.1951219512,-1102,16.0975609756,-1357,82.743902439,13,-0.0565217391,-114,-0.4956521739,75,-0.3658536585
11959117,22636.71875,-1424,0.8730839975,6112,3.7473942367,-4240,2.5996321275,-326,57.1951219512,-938,19.8780487805,-1597,97.3780487805,12,-0.052173913,-111,-0.4826086957,72,-0.3512195122
11959757,22656.25,-1648,1.0104230533,5824,3.5708154506,-3920,2.4034334764,-326,57.1951219512,-938,19.8780487805,-1597,97.3780487805,17,-0.0739130435,-104,-0.452173913,73,-0.356097561
11960397,22675.78125,-2000,1.2262415696,5600,3.4334763948,-3776,2.3151440834,-196,45.4268292683,-745,11.9512195122,-1824,111.2195121951,19,-0.0826086957,-102,-0.4434782609,71,-0.3463414634
11961037,22695.3125,-2640,1.6186388719,5008,3.0705088903,-3888,2.3838136113,-196,45.4268292683,-745,11.9512195122,-1824,111.2195121951,19,-0.0826086957,-99,-0.4304347826,71,-0.3463414634
11961677,22714.84375,-3040,1.8638871858,4240,2.5996321275,-4368,2.678111588,-259,31.8902439024,-523,15.7926829268,-2065,125.9146341463,24,-0.1043478261,-95,-0.4130434783,71,-0.3463414634
11962317,22734.375,-4560,2.7958307787,4016,2.4622930717,-4976,3.0508890251,-357,23.8414634146,-391,21.7682926829,-2229,135.9146341463,22,-0.0956521739,-84,-0.3652173913,70,-0.3414634146
11962957,22753.90625,-4976,3.0508890251,3760,2.3053341508,-4576,2.8056407112,-357,23.8414634146,-391,21.7682926829,-2229,135.9146341463,25,-0.1086956522,-88,-0.3826086957,73,-0.356097561
11963597,22773.4375,-4368,2.678111588,2704,1.6578786021,-4288,2.6290619252,-433,8.7195121951,-143,26.4024390244,-2388,145.6097560976,28,-0.1217391304,-78,-0.3391304348,74,-0.3609756098
11964237,22792.96875,-5568,3.4138565297,1552,0.951563458,-5008,3.0705088903,-183,-5.4268292683,89,11.1585365854,-2411,147.012195122,31,-0.1347826087,-78,-0.3391304348,74,-0.3609756098
11964877,22812.5,-7856,4.8166768853,1024,0.6278356836,-5920,3.629675046,-183,-5.4268292683,89,11.1585365854,-2411,147.012195122,31,-0.1347826087,-69,-0.3,75,-0.3658536585
11965517,22832.03125,-8400,5.1502145923,304,0.1863887186,-6032,3.6983445739,-794,-17.743902439,291,48.4146341463,-2470,150.6097560976,30,-0.1304347826,-61,-0.2652173913,75,-0.3658536585
11966157,22851.5625,-8880,5.444512569,-944,-0.5787860208,-6464,3.9632127529,-794,-17.743902439,291,48.4146341463,-2470,150.6097560976,31,-0.1347826087,-55,-0.2391304348,79,-0.3853658537
11966797,22871.09375,-9392,5.7584304108,-1792,-1.0987124464,-6912,4.2378908645,-1514,-33.9024390244,556,92.3170731707,-2433,148.3536585366,31,-0.1347826087,-55,-0.2391304348,83,-0.4048780488
11967437,22890.625,-8128,4.9834457388,-2384,-1.461679951,-7248,4.4438994482,-2089,-52.5,861,127.3780487805,-2470,150.6097560976,28,-0.1217391304,-46,-0.2,88,-0.4292682927
11968077,22910.15625,-6288,3.8553034948,-3264,-2.0012262416,-8656,5.3071735132,-2089,-52.5,861,127.3780487805,-2470,150.6097560976,29,-0.1260869565,-40,-0.1739130435,89,-0.4341463415
11968717,22929.6875,-7088,4.3458001226,-4528,-2.7762109135,-11360,6.9650521153,-1996,-74.9390243902,1229,121.7073170732,-2360,143.9024390244,24,-0.1043478261,-29,-0.1260869565,97,-0.4731707317
11969357,22949.21875,-8000,4.9049662784,-6352,-3.894543225,-12208,7.4849785408,-1996,-74.9390243902,1229,121.7073170732,-2360,143.9024390244,24,-0.1043478261,-24,-0.1043478261,99,-0.4829268293
11969997,22968.75,-6704,4.1103617413,-7440,-4.5616186389,-12432,7.6223175966,-2761,-86.4024390244,1417,168.3536585366,-2271,138.4756097561,18,-0.0782608696,-21,-0.0913043478,107,-0.5219512195
11970637,22988.28125,-4064,2.4917228694,-7744,-4.7480073574,-14576,8.9368485592,-2784,-98.1707317073,1610,169.756097561,-2181,132.987804878,17,-0.0739130435,-16,-0.0695652174,111,-0.5414634146
11971277,23007.8125,-2128,1.30472103,-9216,-5.6505211527,-16704,10.2415695892,-2784,-98.1707317073,1610,169.756097561,-2181,132.987804878,11,-0.047826087,-9,-0.0391304348,118,-0.5756097561
11971917,23027.34375,-1536,0.9417535254,-11152,-6.837522992,-17248,10.5751072961,-2323,-106.1585365854,1741,141.6463414634,-2039,124.3292682927,6,-0.0260869565,-5,-0.0217391304,118,-0.5756097561
11972557,23046.875,-1824,1.1183323115,-12032,-7.3770692826,-18064,11.0754138565,-2515,-110.9756097561,1820,153.3536585366,-2035,124.0853658537,1,-0.0043478261,0,0,123,-0.6
11973197,23066.40625,-1056,0.6474555487,-12320,-7.5536480687,-18912,11.595340282,-2515,-110.9756097561,1820,153.3536585366,-2035,124.0853658537,-3,0.0130434783,2,0.0086956522,124,-0.6048780488
11973837,23085.9375,880,-0.5395462906,-13552,-8.3090128755,-20432,12.5272838749,-2438,-108.7804878049,1784,148.6585365854,-1967,119.9390243902,-13,0.0565217391,18,0.0782608696,126,-0.6146341463
11974477,23105.46875,1792,-1.0987124464,-15456,-9.4763948498,-21840,13.3905579399,-2438,-108.7804878049,1784,148.6585365854,-1967,119.9390243902,-18,0.0782608696,18,0.0782608696,125,-0.6097560976
11975117,23125,1744,-1.0692826487,-15952,-9.780502759,-21952,13.4592274678,-2634,-101.7073170732,1668,160.6097560976,-1953,119.0853658537,-23,0.1,23,0.1,130,-0.6341463415
11975757,23144.53125,4016,-2.4622930717,-15136,-9.2801961987,-21952,13.4592274678,-2710,-87.4390243902,1434,165.243902439,-2016,122.9268292683,-27,0.1173913043,27,0.1173913043,127,-0.6195121951
11976397,23164.0625,6944,-4.2575107296,-15136,-9.2801961987,-22640,13.8810545677,-2710,-87.4390243902,1434,165.243902439,-2016,122.9268292683,-37,0.1608695652,35,0.152173913,128,-0.6243902439
11977037,23183.59375,7216,-4.4242795831,-16864,-10.3396689148,-22624,13.8712446352,-1651,-80.4268292683,1319,100.6707317073,-1918,116.9512195122,-40,0.1739130435,33,0.1434782609,128,-0.6243902439
11977677,23203.125,6016,-3.6885346413,-17664,-10.8301655426,-23152,14.1949724096,-1651,-80.4268292683,1319,100.6707317073,-1918,116.9512195122,-45,0.1956521739,38,0.1652173913,128,-0.6243902439
11978317,23222.65625,5856,-3.5904353158,-16624,-10.1925199264,-23776,14.5775597793,-1599,-61.0365853659,1001,97.5,-2163,131.8902439024,-49,0.2130434783,41,0.1782608696,126,-0.6146341463
11978957,23242.1875,7040,-4.316370325,-15984,-9.8001226242,-24080,14.7639484979,-1166,-42.3170731707,694,71.0975609756,-2256,137.5609756098,-55,0.2391304348,40,0.1739130435,129,-0.6292682927
11979597,23261.71875,7136,-4.3752299203,-16800,-10.3004291845,-23696,14.5285101165,-1166,-42.3170731707,694,71.0975609756,-2256,137.5609756098,-59,0.2565217391,41,0.1782608696,126,-0.6146341463
11980237,23281.25,6864,-4.2084610668,-16512,-10.1238503985,-23728,14.5481299816,-438,-21.0975609756,346,26.7073170732,-2280,139.0243902439,-65,0.2826086957,44,0.1913043478,126,-0.6146341463
11980877,23300.78125,6928,-4.2477007971,-15264,-9.3586756591,-24128,14.7933782955,-438,-21.0975609756,346,26.7073170732,-2280,139.0243902439,-67,0.2913043478,41,0.1782608696,127,-0.6195121951
11981517,23320.3125,7024,-4.3065603924,-15088,-9.250766401,-24832,15.225015328,377,1.7682926829,-29,-22.987804878,-2143,130.6707317073,-71,0.3086956522,41,0.1782608696,126,-0.6146341463
11982157,23339.84375,5264,-3.2274678112,-14688,-9.0055180871,-24864,15.2446351931,871,27.9268292683,-458,-53.1097560976,-1945,118.5975609756,-71,0.3086956522,40,0.1739130435,127,-0.6195121951
11982797,23359.375,4784,-2.9331698345,-13664,-8.3776824034,-25024,15.3427345187,871,27.9268292683,-458,-53.1097560976,-1945,118.5975609756,-75,0.3260869565,46,0.2,126,-0.6146341463
11983437,23378.90625,5744,-3.5217657879,-12912,-7.9166155733,-25024,15.3427345187,640,53.5975609756,-879,-39.0243902439,-1725,105.1829268293,-77,0.3347826087,44,0.1913043478,127,-0.6195121951
11984077,23398.4375,5952,-3.6492949111,-12864,-7.8871857756,-24160,14.8129981606,761,79.0853658537,-1297,-46.4024390244,-1492,90.9756097561,-78,0.3391304348,45,0.1956521739,129,-0.6292682927
11984717,23417.96875,5760,-3.5315757204,-12576,-7.7106069896,-22656,13.8908645003,761,79.0853658537,-1297,-46.4024390244,-1492,90.9756097561,-78,0.3391304348,38,0.1652173913,132,-0.643902439
11985357,23437.5,6768,-4.1496014715,-11984,-7.347639485,-21120,12.9491109749,742,101.0975609756,-1658,-45.243902439,-1401,85.4268292683,-79,0.3434782609,43,0.1869565217,134,-0.6536585366
11985997,23457.03125,7872,-4.8264868179,-11744,-7.2004904966,-19792,12.1348865727,742,101.0975609756,-1658,-45.243902439,-1401,85.4268292683,-80,0.347826087,38,0.1652173913,138,-0.6731707317
