Shimmer,Shimmer,Shimmer,Shimmer,Shimmer,Shimmer,Shimmer,Shimmer,Shimmer,Shimmer,Shimmer,Shimmer,Shimmer,Shimmer,Shimmer,Shimmer,Shimmer,Shimmer,Shimmer,Shimmer
Timestamp,Timestamp,Wide Range Accelerometer X,Wide Range Accelerometer X,Wide Range Accelerometer Y,Wide Range Accelerometer Y,Wide Range Accelerometer Z,Wide Range Accelerometer Z,Gyroscope X,Gyroscope X,Gyroscope Y,Gyroscope Y,Gyroscope Z,Gyroscope Z,Magnetometer X,Magnetometer X,Magnetometer Y,Magnetometer Y,Magnetometer Z,Magnetometer Z
RAW,CAL,RAW,CAL,RAW,CAL,RAW,CAL,RAW,CAL,RAW,CAL,RAW,CAL,RAW,CAL,RAW,CAL,RAW,CAL
no units,mSecs,no units,m/(sec^2),no units,m/(sec^2),no units,m/(sec^2),no units,deg/sec,no units,deg/sec,no units,deg/sec,no units,local,no units,local,no units,local
1558814,9687.5,1840,-1.128142244,-15616,-9.5744941754,-2928,1.7952176579,27,2.3780487805,-39,-1.6463414634,-18,1.0975609756,-50,0.2173913043,39,0.1695652174,125,-0.6097560976
1559454,9707.03125,1856,-1.1379521766,-15696,-9.6235438381,-2976,1.8246474555,27,2.3780487805,-39,-1.6463414634,-18,1.0975609756,-50,0.2173913043,39,0.1695652174,126,-0.6146341463
1560094,9726.5625,1872,-1.1477621091,-15776,-9.6725935009,-3120,1.9129368486,18,2.4390243902,-40,-1.0975609756,-14,0.8536585366,-52,0.2260869565,41,0.1782608696,123,-0.6
1560734,9746.09375,1904,-1.1673819742,-15680,-9.6137339056,-3040,1.8638871858,18,2.4390243902,-40,-1.0975609756,-14,0.8536585366,-52,0.2260869565,36,0.1565217391,126,-0.6146341463
1561374,9765.625,1808,-1.1085223789,-15728,-9.6431637032,-3056,1.8736971183,5,2.5,-41,-0.3048780488,-13,0.7926829268,-49,0.2130434783,38,0.1652173913,125,-0.6097560976
1562014,9785.15625,1920,-1.1771919068,-15792,-9.6824034335,-2928,1.7952176579,-5,2.9268292683,-48,0.3048780488,-16,0.9756097561,-50,0.2173913043,36,0.1565217391,126,-0.6146341463
1562654,9804.6875,1888,-1.1575720417,-15824,-9.7020232986,-2944,1.8050275904,-5,2.9268292683,-48,0.3048780488,-16,0.9756097561,-51,0.2217391304,37,0.1608695652,125,-0.6097560976
1563294,9824.21875,1888,-1.1575720417,-15840,-9.7118332311,-2976,1.8246474555,-12,2.9268292683,-48,0.7317073171,-17,1.0365853659,-51,0.2217391304,38,0.1652173913,125,-0.6097560976
1563934,9843.75,1984,-1.216431637,-15792,-9.6824034335,-2912,1.7854077253,-12,2.9268292683,-48,0.7317073171,-17,1.0365853659,-50,0.2173913043,37,0.1608695652,125,-0.6097560976
1564574,9863.28125,2000,-1.2262415696,-15872,-9.7314530963,-2896,1.7755977928,-12,2.1951219512,-36,0.7317073171,-4,0.243902439,-50,0.2173913043,36,0.1565217391,125,-0.6097560976
1565214,9882.8125,2064,-1.2654812998,-15936,-9.7706928265,-2960,1.814837523,14,1.5853658537,-26,-0.8536585366,10,-0.6097560976,-51,0.2217391304,40,0.1739130435,127,-0.6195121951
1565854,9902.34375,2000,-1.2262415696,-15872,-9.7314530963,-2976,1.8246474555,14,1.5853658537,-26,-0.8536585366,10,-0.6097560976,-51,0.2217391304,39,0.1695652174,127,-0.6195121951
1566494,9921.875,1904,-1.1673819742,-15792,-9.6824034335,-3008,1.8442673207,25,1.0365853659,-17,-1.5243902439,17,-1.0365853659,-50,0.2173913043,38,0.1652173913,126,-0.6146341463
1567134,9941.40625,1952,-1.1968117719,-15888,-9.7412630288,-3024,1.8540772532,-4,1.2804878049,-21,0.243902439,12,-0.7317073171,-51,0.2217391304,40,0.1739130435,126,-0.6146341463
1567774,9960.9375,1952,-1.1968117719,-15904,-9.7510729614,-3024,1.8540772532,-4,1.2804878049,-21,0.243902439,12,-0.7317073171,-51,0.2217391304,37,0.1608695652,125,-0.6097560976
1568414,9980.46875,2048,-1.2556713673,-15824,-9.7020232986,-3088,1.8933169834,-12,1.7682926829,-29,0.7317073171,8,-0.487804878,-50,0.2173913043,39,0.1695652174,125,-0.6097560976
1569054,10000,2032,-1.2458614347,-15776,-9.6725935009,-3120,1.9129368486,-12,1.7682926829,-29,0.7317073171,8,-0.487804878,-50,0.2173913043,36,0.1565217391,127,-0.6195121951
1569694,10019.53125,2064,-1.2654812998,-15792,-9.6824034335,-3040,1.8638871858,-11,2.256097561,-37,0.6707317073,9,-0.5487804878,-51,0.2217391304,39,0.1695652174,125,-0.6097560976
1570334,10039.0625,1984,-1.216431637,-15840,-9.7118332311,-3088,1.8933169834,-25,2.3170731707,-38,1.5243902439,6,-0.3658536585,-50,0.2173913043,39,0.1695652174,126,-0.6146341463
1570974,10058.59375,2048,-1.2556713673,-15840,-9.7118332311,-3008,1.8442673207,-25,2.3170731707,-38,1.5243902439,6,-0.3658536585,-51,0.2217391304,39,0.1695652174,124,-0.6048780488
1571614,10078.125,2112,-1.2949110975,-15872,-9.7314530963,-3040,1.8638871858,-11,2.3780487805,-39,0.6707317073,1,-0.0609756098,-52,0.2260869565,35,0.152173913,127,-0.6195121951
1572254,10097.65625,2048,-1.2556713673,-15872,-9.7314530963,-2960,1.814837523,-11,2.3780487805,-39,0.6707317073,1,-0.0609756098,-51,0.2217391304,36,0.1565217391,126,-0.6146341463
1572894,10117.1875,2032,-1.2458614347,-15872,-9.7314530963,-2976,1.8246474555,2,2.256097561,-37,-0.1219512195,2,-0.1219512195,-50,0.2173913043,37,0.1608695652,126,-0.6146341463
1573534,10136.71875,2016,-1.2360515021,-15888,-9.7412630288,-3008,1.8442673207,-6,2.6219512195,-43,0.3658536585,2,-0.1219512195,-50,0.2173913043,35,0.152173913,125,-0.6097560976
1574174,10156.25,2064,-1.2654812998,-15824,-9.7020232986,-2992,1.8344573881,-6,2.6219512195,-43,0.3658536585,2,-0.1219512195,-51,0.2217391304,41,0.1782608696,126,-0.6146341463
1574814,10175.78125,2016,-1.2360515021,-15760,-9.6627835684,-2912,1.7854077253,-23,3.0487804878,-50,1.4024390244,-10,0.6097560976,-51,0.2217391304,40,0.1739130435,125,-0.6097560976
1575454,10195.3125,2064,-1.2654812998,-15728,-9.6431637032,-2864,1.7559779277,-33,2.8048780488,-46,2.012195122,-16,0.9756097561,-53,0.2304347826,38,0.1652173913,126,-0.6146341463
1576094,10214.84375,2208,-1.3537706928,-15776,-9.6725935009,-2832,1.7363580625,-33,2.8048780488,-46,2.012195122,-16,0.9756097561,-52,0.2260869565,36,0.1565217391,126,-0.6146341463
1576734,10234.375,2128,-1.30472103,-15744,-9.6529736358,-2832,1.7363580625,-26,2.4390243902,-40,1.5853658537,-19,1.1585365854,-51,0.2217391304,39,0.1695652174,126,-0.6146341463
1577374,10253.90625,2064,-1.2654812998,-15792,-9.6824034335,-2816,1.72654813,-26,2.4390243902,-40,1.5853658537,-19,1.1585365854,-51,0.2217391304,38,0.1652173913,125,-0.6097560976
1578014,10273.4375,2064,-1.2654812998,-15824,-9.7020232986,-2848,1.7461679951,-12,2.012195122,-33,0.7317073171,-14,0.8536585366,-51,0.2217391304,35,0.152173913,126,-0.6146341463
1578654,10292.96875,2000,-1.2262415696,-15856,-9.7216431637,-2928,1.7952176579,-8,1.8902439024,-31,0.487804878,-13,0.7926829268,-50,0.2173913043,36,0.1565217391,127,-0.6195121951
1579294,10312.5,2016,-1.2360515021,-15840,-9.7118332311,-2928,1.7952176579,-8,1.8902439024,-31,0.487804878,-13,0.7926829268,-51,0.2217391304,38,0.1652173913,125,-0.6097560976
1579934,10332.03125,2000,-1.2262415696,-15872,-9.7314530963,-2960,1.814837523,-12,1.8292682927,-30,0.7317073171,-16,0.9756097561,-51,0.2217391304,39,0.1695652174,125,-0.6097560976
1580574,10351.5625,1984,-1.216431637,-15824,-9.7020232986,-2992,1.8344573881,-12,1.8292682927,-30,0.7317073171,-16,0.9756097561,-52,0.2260869565,37,0.1608695652,126,-0.6146341463
1581214,10371.09375,1936,-1.1870018394,-15888,-9.7412630288,-2976,1.8246474555,-19,2.0731707317,-34,1.1585365854,-18,1.0975609756,-54,0.2347826087,37,0.1608695652,126,-0.6146341463
1581854,10390.625,1936,-1.1870018394,-15904,-9.7510729614,-3008,1.8442673207,-26,2.3780487805,-39,1.5853658537,-20,1.2195121951,-50,0.2173913043,38,0.1652173913,126,-0.6146341463
1582494,10410.15625,1920,-1.1771919068,-15808,-9.692213366,-3072,1.8835070509,-26,2.3780487805,-39,1.5853658537,-20,1.2195121951,-53,0.2304347826,39,0.1695652174,124,-0.6048780488
1583134,10429.6875,1968,-1.2066217045,-15872,-9.7314530963,-3008,1.8442673207,-19,2.5609756098,-42,1.1585365854,-18,1.0975609756,-52,0.2260869565,37,0.1608695652,124,-0.6048780488
1583774,10449.21875,1888,-1.1575720417,-15856,-9.7216431637,-2976,1.8246474555,-19,2.5609756098,-42,1.1585365854,-18,1.0975609756,-52,0.2260869565,38,0.1652173913,126,-0.6146341463
1584414,10468.75,1952,-1.1968117719,-15872,-9.7314530963,-2960,1.814837523,-12,2.8048780488,-46,0.7317073171,-4,0.243902439,-51,0.2217391304,36,0.1565217391,125,-0.6097560976
1585054,10488.28125,1936,-1.1870018394,-15856,-9.7216431637,-2992,1.8344573881,-11,2.6829268293,-44,0.6707317073,8,-0.487804878,-50,0.2173913043,36,0.1565217391,126,-0.6146341463
1585694,10507.8125,1984,-1.216431637,-15968,-9.7903126916,-2928,1.7952176579,-11,2.6829268293,-44,0.6707317073,8,-0.487804878,-51,0.2217391304,40,0.1739130435,126,-0.6146341463
1586334,10527.34375,2016,-1.2360515021,-15920,-9.7608828939,-2992,1.8344573881,-8,2.743902439,-45,0.487804878,16,-0.9756097561,-54,0.2347826087,40,0.1739130435,126,-0.6146341463
1586974,10546.875,1968,-1.2066217045,-15872,-9.7314530963,-2976,1.8246474555,-5,2.8048780488,-46,0.3048780488,12,-0.7317073171,-51,0.2217391304,35,0.152173913,125,-0.6097560976
1587614,10566.40625,1952,-1.1968117719,-15856,-9.7216431637,-2960,1.814837523,-5,2.8048780488,-46,0.3048780488,12,-0.7317073171,-52,0.2260869565,39,0.1695652174,126,-0.6146341463
1588254,10585.9375,2016,-1.2360515021,-15904,-9.7510729614,-2896,1.7755977928,-11,3.1707317073,-52,0.6707317073,12,-0.7317073171,-51,0.2217391304,40,0.1739130435,125,-0.6097560976
1588894,10605.46875,2016,-1.2360515021,-15840,-9.7118332311,-2912,1.7854077253,-11,3.1707317073,-52,0.6707317073,12,-0.7317073171,-51,0.2217391304,38,0.1652173913,125,-0.6097560976
1589534,10625,2048,-1.2556713673,-15808,-9.692213366,-2896,1.7755977928,-12,3.1097560976,-51,0.7317073171,9,-0.5487804878,-51,0.2217391304,40,0.1739130435,125,-0.6097560976
1590174,10644.53125,2080,-1.2752912324,-15776,-9.6725935009,-2880,1.7657878602,-14,3.2317073171,-53,0.8536585366,8,-0.487804878,-50,0.2173913043,40,0.1739130435,124,-0.6048780488
1590814,10664.0625,2144,-1.3145309626,-15856,-9.7216431637,-2816,1.72654813,-14,3.2317073171,-53,0.8536585366,8,-0.487804878,-51,0.2217391304,38,0.1652173913,125,-0.6097560976
1591454,10683.59375,2160,-1.3243408952,-15936,-9.7706928265,-2848,1.7461679951,-3,2.8658536585,-47,0.1829268293,4,-0.243902439,-52,0.2260869565,37,0.1608695652,127,-0.6195121951
1592094,10703.125,2128,-1.30472103,-15904,-9.7510729614,-2880,1.7657878602,-3,2.8658536585,-47,0.1829268293,4,-0.243902439,-52,0.2260869565,36,0.1565217391,126,-0.6146341463
1592734,10722.65625,2160,-1.3243408952,-15872,-9.7314530963,-2912,1.7854077253,9,2.6829268293,-44,-0.5487804878,1,-0.0609756098,-53,0.2304347826,39,0.1695652174,125,-0.6097560976
1593374,10742.1875,2096,-1.2851011649,-15792,-9.6824034335,-2912,1.7854077253,7,2.987804878,-49,-0.4268292683,0,0,-50,0.2173913043,36,0.1565217391,125,-0.6097560976
1594014,10761.71875,2032,-1.2458614347,-15856,-9.7216431637,-2896,1.7755977928,7,2.987804878,-49,-0.4268292683,0,0,-51,0.2217391304,37,0.1608695652,126,-0.6146341463
1594654,10781.25,2064,-1.2654812998,-15888,-9.7412630288,-2848,1.7461679951,5,3.3536585366,-55,-0.3048780488,-7,0.4268292683,-51,0.2217391304,41,0.1782608696,126,-0.6146341463
1595294,10800.78125,2032,-1.2458614347,-15936,-9.7706928265,-2896,1.7755977928,5,3.3536585366,-55,-0.3048780488,-7,0.4268292683,-51,0.2217391304,38,0.1652173913,126,-0.6146341463
1595934,10820.3125,2064,-1.2654812998,-15872,-9.7314530963,-2832,1.7363580625,-11,3.5365853659,-58,0.6707317073,-14,0.8536585366,-51,0.2217391304,36,0.1565217391,125,-0.6097560976
1596574,10839.84375,2096,-1.2851011649,-15792,-9.6824034335,-2832,1.7363580625,-8,3.2317073171,-53,0.487804878,-21,1.2804878049,-52,0.2260869565,42,0.1826086957,125,-0.6097560976
1597214,10859.375,2128,-1.30472103,-15824,-9.7020232986,-2816,1.72654813,-8,3.2317073171,-53,0.487804878,-21,1.2804878049,-51,0.2217391304,39,0.1695652174,125,-0.6097560976
1597854,10878.90625,2080,-1.2752912324,-15776,-9.6725935009,-2896,1.7755977928,3,2.987804878,-49,-0.1829268293,-18,1.0975609756,-50,0.2173913043,35,0.152173913,127,-0.6195121951
1598494,10898.4375,2016,-1.2360515021,-15792,-9.6824034335,-2848,1.7461679951,12,2.9268292683,-48,-0.7317073171,-12,0.7317073171,-50,0.2173913043,35,0.152173913,127,-0.6195121951
1599134,10917.96875,2000,-1.2262415696,-15808,-9.692213366,-2880,1.7657878602,12,2.9268292683,-48,-0.7317073171,-12,0.7317073171,-51,0.2217391304,39,0.1695652174,126,-0.6146341463
1599774,10937.5,2016,-1.2360515021,-15808,-9.692213366,-2848,1.7461679951,8,2.8048780488,-46,-0.487804878,-7,0.4268292683,-50,0.2173913043,40,0.1739130435,125,-0.6097560976
1600414,10957.03125,2000,-1.2262415696,-15856,-9.7216431637,-2912,1.7854077253,8,2.8048780488,-46,-0.487804878,-7,0.4268292683,-50,0.2173913043,37,0.1608695652,127,-0.6195121951
1601054,10976.5625,2016,-1.2360515021,-15808,-9.692213366,-2928,1.7952176579,4,2.8658536585,-47,-0.243902439,-6,0.3658536585,-52,0.2260869565,37,0.1608695652,126,-0.6146341463
1601694,10996.09375,1968,-1.2066217045,-15872,-9.7314530963,-2832,1.7363580625,10,2.8658536585,-47,-0.6097560976,-8,0.487804878,-51,0.2217391304,39,0.1695652174,125,-0.6097560976
1602334,11015.625,1968,-1.2066217045,-15824,-9.7020232986,-2848,1.7461679951,10,2.8658536585,-47,-0.6097560976,-8,0.487804878,-50,0.2173913043,38,0.1652173913,124,-0.6048780488
1602974,11035.15625,1904,-1.1673819742,-15776,-9.6725935009,-2976,1.8246474555,12,2.8658536585,-47,-0.7317073171,-5,0.3048780488,-53,0.2304347826,37,0.1608695652,125,-0.6097560976
1603614,11054.6875,1936,-1.1870018394,-15776,-9.6725935009,-2912,1.7854077253,12,2.8658536585,-47,-0.7317073171,-5,0.3048780488,-52,0.2260869565,35,0.152173913,127,-0.6195121951
1604254,11074.21875,1952,-1.1968117719,-15760,-9.6627835684,-2864,1.7559779277,20,2.8658536585,-47,-1.2195121951,-2,0.1219512195,-50,0.2173913043,35,0.152173913,124,-0.6048780488
1604894,11093.75,2016,-1.2360515021,-15840,-9.7118332311,-2896,1.7755977928,19,2.5609756098,-42,-1.1585365854,0,0,-50,0.2173913043,36,0.1565217391,125,-0.6097560976
1605534,11113.28125,2048,-1.2556713673,-15872,-9.7314530963,-2912,1.7854077253,19,2.5609756098,-42,-1.1585365854,0,0,-51,0.2217391304,40,0.1739130435,126,-0.6146341463
1606174,11132.8125,2224,-1.3635806254,-15920,-9.7608828939,-3040,1.8638871858,35,1.0365853659,-17,-2.1341463415,13,-0.7926829268,-51,0.2217391304,42,0.1826086957,125,-0.6097560976
1606814,11152.34375,3088,-1.8933169834,-15840,-9.7118332311,-3552,2.1778050276,321,-2.5609756098,42,-19.5731707317,77,-4.6951219512,-51,0.2217391304,35,0.152173913,125,-0.6097560976
1607454,11171.875,4032,-2.4721030043,-15440,-9.4665849172,-4672,2.8645003066,321,-2.5609756098,42,-19.5731707317,77,-4.6951219512,-49,0.2130434783,39,0.1695652174,124,-0.6048780488
1608094,11191.40625,4560,-2.7958307787,-15568,-9.5450643777,-6848,4.1986511343,1068,-6.4634146341,106,-65.1219512195,163,-9.9390243902,-49,0.2130434783,39,0.1695652174,124,-0.6048780488
1608734,11210.9375,4928,-3.0214592275,-15504,-9.5058246475,-8768,5.3758430411,1068,-6.4634146341,106,-65.1219512195,163,-9.9390243902,-46,0.2,38,0.1652173913,121,-0.5902439024
1609374,11230.46875,4480,-2.7467811159,-16336,-10.0159411404,-11776,7.2201103617,1619,-3.7804878049,62,-98.7195121951,217,-13.2317073171,-44,0.1913043478,36,0.1565217391,122,-0.5951219512
1610014,11250,4096,-2.5113427345,-16816,-10.3102391171,-13760,8.4365419988,1599,19.756097561,-324,-97.5,246,-15,-41,0.1782608696,36,0.1565217391,121,-0.5902439024
1610654,11269.53125,4976,-3.0508890251,-17248,-10.5751072961,-15344,9.4077253219,1599,19.756097561,-324,-97.5,246,-15,-39,0.1695652174,40,0.1739130435,118,-0.5756097561
1611294,11289.0625,5328,-3.2667075414,-17904,-10.977314531,-16720,10.2513795218,1438,52.6219512195,-863,-87.6829268293,231,-14.0853658537,-37,0.1608695652,38,0.1652173913,119,-0.5804878049
1611934,11308.59375,5584,-3.4236664623,-18896,-11.5855303495,-17888,10.9675045984,1438,52.6219512195,-863,-87.6829268293,231,-14.0853658537,-39,0.1695652174,35,0.152173913,120,-0.5853658537
1612574,11328.125,7120,-4.3654199877,-20128,-12.3408951563,-18240,11.1833231147,1103,88.7804878049,-1456,-67.256097561,127,-7.743902439,-36,0.1565217391,32,0.1391304348,122,-0.5951219512
1613214,11347.65625,7744,-4.7480073574,-21056,-12.9098712446,-17808,10.9184549356,1178,121.5853658537,-1994,-71.8292682927,-113,6.8902439024,-33,0.1434782609,33,0.1434782609,122,-0.5951219512
1613854,11367.1875,7760,-4.75781729,-21936,-13.4494175353,-16864,10.3396689148,1178,121.5853658537,-1994,-71.8292682927,-113,6.8902439024,-32,0.1391304348,28,0.1217391304,125,-0.6097560976
1614494,11386.71875,7632,-4.6793378296,-23024,-14.1164929491,-15664,9.603923973,1242,148.7804878049,-2440,-75.7317073171,-366,22.3170731707,-32,0.1391304348,28,0.1217391304,127,-0.6195121951
1615134,11406.25,7040,-4.316370325,-24080,-14.7639484979,-14480,8.8779889638,1242,148.7804878049,-2440,-75.7317073171,-366,22.3170731707,-32,0.1391304348,28,0.1217391304,130,-0.6341463415
1615774,11425.78125,6288,-3.8553034948,-24384,-14.9503372164,-13296,8.1520539546,1222,171.7682926829,-2817,-74.512195122,-592,36.0975609756,-29,0.1260869565,21,0.0913043478,132,-0.643902439
1616414,11445.3125,5680,-3.4825260576,-23904,-14.6560392397,-12672,7.7694665849,1146,187.743902439,-3079,-69.8780487805,-791,48.2317073171,-28,0.1217391304,19,0.0826086957,136,-0.6634146341
1617054,11464.84375,4896,-3.0018393624,-23312,-14.2930717351,-11632,7.1318209687,1146,187.743902439,-3079,-69.8780487805,-791,48.2317073171,-30,0.1304347826,19,0.0826086957,138,-0.6731707317
1617694,11484.375,4448,-2.7271612508,-23088,-14.1557326793,-10000,6.1312078479,1015,194.512195122,-3190,-61.8902439024,-912,55.6097560976,-28,0.1217391304,14,0.0608695652,140,-0.6829268293
1618334,11503.90625,3968,-2.4328632741,-22400,-13.7339055794,-9024,5.532801962,843,195.7926829268,-3211,-51.4024390244,-946,57.6829268293,-26,0.1130434783,8,0.0347826087,144,-0.7024390244
1618974,11523.4375,3680,-2.256284488,-21120,-12.9491109749,-8352,5.1207847946,843,195.7926829268,-3211,-51.4024390244,-946,57.6829268293,-25,0.1086956522,9,0.0391304348,144,-0.7024390244
1619614,11542.96875,3408,-2.0895156346,-19600,-12.017167382,-7840,4.8068669528,803,188.2317073171,-3087,-48.9634146341,-961,58.5975609756,-26,0.1130434783,6,0.0260869565,146,-0.712195122
1620254,11562.5,2672,-1.638258737,-18192,-11.153893317,-7344,4.5027590435,803,188.2317073171,-3087,-48.9634146341,-961,58.5975609756,-21,0.0913043478,0,0,149,-0.7268292683
1620894,11582.03125,1728,-1.0594727161,-16624,-10.1925199264,-6816,4.1790312692,714,176.0975609756,-2888,-43.5365853659,-942,57.4390243902,-25,0.1086956522,-7,-0.0304347826,151,-0.7365853659
1621534,11601.5625,1264,-0.774984672,-14736,-9.0349478847,-6592,4.0416922134,622,161.7073170732,-2652,-37.9268292683,-878,53.5365853659,-21,0.0913043478,-9,-0.0391304348,150,-0.7317073171
1622174,11621.09375,944,-0.5787860208,-13328,-8.1716738197,-6304,3.8651134273,622,161.7073170732,-2652,-37.9268292683,-878,53.5365853659,-19,0.0826086957,-13,-0.0565217391,152,-0.7414634146
1622814,11640.625,432,-0.264868179,-11952,-7.3280196199,-5936,3.6394849785,560,145,-2378,-34.1463414634,-794,48.4146341463,-21,0.0913043478,-14,-0.0608695652,151,-0.7365853659
1623454,11660.15625,-16,0.0098099326,-10368,-6.3568362968,-6096,3.7375843041,560,145,-2378,-34.1463414634,-794,48.4146341463,-19,0.0826086957,-17,-0.0739130435,154,-0.7512195122
1624094,11679.6875,-544,0.3335377069,-8960,-5.4935622318,-6256,3.8356836297,564,127.3170731707,-2088,-34.3902439024,-705,42.987804878,-19,0.0826086957,-16,-0.0695652174,152,-0.7414634146
1624734,11699.21875,-1088,0.6670754139,-7888,-4.8362967505,-6288,3.8553034948,577,108.4146341463,-1778,-35.1829268293,-584,35.6097560976,-15,0.0652173913,-26,-0.1130434783,154,-0.7512195122
1625374,11718.75,-1296,0.7946045371,-6992,-4.2869405273,-6640,4.071122011,577,108.4146341463,-1778,-35.1829268293,-584,35.6097560976,-15,0.0652173913,-23,-0.1,154,-0.7512195122
1626014,11738.28125,-1600,0.9809932557,-6016,-3.6885346413,-7392,4.5321888412,609,91.3414634146,-1498,-37.1341463415,-457,27.8658536585,-13,0.0565217391,-26,-0.1130434783,153,-0.7463414634
1626654,11757.8125,-2144,1.3145309626,-5136,-3.1489883507,-7584,4.6499080319,609,91.3414634146,-1498,-37.1341463415,-457,27.8658536585,-11,0.047826087,-32,-0.1391304348,154,-0.7512195122
1627294,11777.34375,-2576,1.5793991416,-4288,-2.6290619252,-7968,4.8853464132,513,75.7926829268,-1243,-31.2804878049,-355,21.6463414634,-9,0.0391304348,-31,-0.1347826087,151,-0.7365853659
1627934,11796.875,-2864,1.7559779277,-3440,-2.1091354997,-8224,5.0423053342,352,61.5853658537,-1010,-21.4634146341,-304,18.5365853659,-10,0.0434782609,-32,-0.1391304348,150,-0.7317073171
1628574,11816.40625,-3008,1.8442673207,-2800,-1.7167381974,-8752,5.3660331085,352,61.5853658537,-1010,-21.4634146341,-304,18.5365853659,-8,0.0347826087,-33,-0.1434782609,149,-0.7268292683
1629214,11835.9375,-2816,1.72654813,-2384,-1.461679951,-8960,5.4935622318,227,48.1097560976,-789,-13.8414634146,-244,14.8780487805,-6,0.0260869565,-35,-0.152173913,149,-0.7268292683
1629854,11855.46875,-2992,1.8344573881,-1648,-1.0104230533,-10000,6.1312078479,314,36.4024390244,-597,-19.1463414634,-196,11.9512195122,-8,0.0347826087,-32,-0.1391304348,148,-0.7219512195
1630494,11875,-3104,1.903126916,-1296,-0.7946045371,-10848,6.6511342735,314,36.4024390244,-597,-19.1463414634,-196,11.9512195122,-6,0.0260869565,-34,-0.147826087,148,-0.7219512195
1631134,11894.53125,-2912,1.7854077253,-1216,-0.7455548743,-11408,6.9944819129,320,27.0731707317,-444,-19.512195122,-160,9.756097561,-5,0.0217391304,-36,-0.1565217391,148,-0.7219512195
1631774,11914.0625,-2944,1.8050275904,-1120,-0.686695279,-12096,7.4163090129,320,27.0731707317,-444,-19.512195122,-160,9.756097561,-7,0.0304347826,-39,-0.1695652174,148,-0.7219512195
1632414,11933.59375,-3456,2.1189454323,-784,-0.4806866953,-12752,7.8185162477,420,20.3048780488,-333,-25.6097560976,-122,7.4390243902,-7,0.0304347826,-41,-0.1782608696,148,-0.7219512195
1633054,11953.125,-3696,2.2660944206,-816,-0.5003065604,-13296,8.1520539546,289,15.5487804878,-255,-17.6219512195,-84,5.1219512195,-2,0.0086956522,-38,-0.1652173913,145,-0.7073170732
1633694,11972.65625,-3424,2.0993255671,-816,-0.5003065604,-13728,8.4169221337,289,15.5487804878,-255,-17.6219512195,-84,5.1219512195,-1,0.0043478261,-40,-0.1739130435,146,-0.712195122
1634334,11992.1875,-3168,1.9423666462,-800,-0.4904966278,-14352,8.7995095034,164,13.1097560976,-215,-10,-89,5.4268292683,-3,0.0130434783,-35,-0.152173913,146,-0.712195122
1634974,12011.71875,-2928,1.7952176579,-768,-0.4708767627,-14432,8.8485591662,164,13.1097560976,-215,-10,-89,5.4268292683,-2,0.0086956522,-37,-0.1608695652,146,-0.712195122
1635614,12031.25,-2816,1.72654813,-640,-0.3923973023,-14656,8.9858982219,161,11.8902439024,-195,-9.8170731707,-88,5.3658536585,-1,0.0043478261,-41,-0.1782608696,145,-0.7073170732
1636254,12050.78125,-3056,1.8736971183,-512,-0.3139178418,-14800,9.074187615,192,11.1585365854,-183,-11.7073170732,-108,6.5853658537,-1,0.0043478261,-36,-0.1565217391,143,-0.6975609756
1636894,12070.3125,-3312,2.0306560392,-544,-0.3335377069,-14912,9.1428571429,192,11.1585365854,-183,-11.7073170732,-108,6.5853658537,-3,0.0130434783,-37,-0.1608695652,146,-0.712195122
1637534,12089.84375,-3440,2.1091354997,-272,-0.1667688535,-15072,9.2409564684,77,11.4634146341,-188,-4.6951219512,-122,7.4390243902,-2,0.0086956522,-37,-0.1608695652,144,-0.7024390244
1638174,12109.375,-3456,2.1189454323,-176,-0.1079092581,-15184,9.3096259963,2,11.0365853659,-181,-0.1219512195,-111,6.7682926829,-1,0.0043478261,-41,-0.1782608696,144,-0.7024390244
1638814,12128.90625,-3584,2.1974248927,-176,-0.1079092581,-15376,9.427345187,2,11.0365853659,-181,-0.1219512195,-111,6.7682926829,0,0,-42,-0.1826086957,144,-0.7024390244
1639454,12148.4375,-3472,2.1287553648,-304,-0.1863887186,-15408,9.4469650521,-100,10.3658536585,-170,6.0975609756,-103,6.2804878049,-1,0.0043478261,-37,-0.1608695652,143,-0.6975609756
1640094,12167.96875,-3056,1.8736971183,-320,-0.1961986511,-15344,9.4077253219,-100,10.3658536585,-170,6.0975609756,-103,6.2804878049,-3,0.0130434783,-36,-0.1565217391,144,-0.7024390244
1640734,12187.5,-2704,1.6578786021,-256,-0.1569589209,-15472,9.4862047823,-68,8.7195121951,-143,4.1463414634,-65,3.9634146341,-4,0.0173913043,-35,-0.152173913,142,-0.6926829268
1641374,12207.03125,-2624,1.6088289393,-80,-0.0490496628,-15472,9.4862047823,-33,8.5975609756,-141,2.012195122,-55,3.3536585366,-3,0.0130434783,-39,-0.1695652174,146,-0.712195122
1642014,12226.5625,-2624,1.6088289393,-16,-0.0098099326,-15472,9.4862047823,-33,8.5975609756,-141,2.012195122,-55,3.3536585366,-1,0.0043478261,-38,-0.1652173913,144,-0.7024390244
1642654,12246.09375,-2416,1.4812998161,176,0.1079092581,-15408,9.4469650521,-52,6.8902439024,-113,3.1707317073,-47,2.8658536585,-2,0.0086956522,-35,-0.152173913,143,-0.6975609756
1643294,12265.625,-2048,1.2556713673,128,0.0784794605,-15248,9.3488657265,-52,6.8902439024,-113,3.1707317073,-47,2.8658536585,-3,0.0130434783,-41,-0.1782608696,146,-0.712195122
1643934,12285.15625,-2192,1.3439607603,192,0.1177191907,-15504,9.5058246475,59,6.0365853659,-99,-3.5975609756,-61,3.7195121951,-2,0.0086956522,-41,-0.1782608696,146,-0.712195122
1644574,12304.6875,-2624,1.6088289393,224,0.1373390558,-15680,9.6137339056,82,4.9390243902,-81,-5,-63,3.8414634146,-1,0.0043478261,-41,-0.1782608696,143,-0.6975609756
1645214,12324.21875,-3088,1.8933169834,272,0.1667688535,-15552,9.5352544451,82,4.9390243902,-81,-5,-63,3.8414634146,0,0,-42,-0.1826086957,143,-0.6975609756
1645854,12343.75,-3104,1.903126916,192,0.1177191907,-15488,9.4960147149,-28,4.0853658537,-67,1.7073170732,-46,2.8048780488,-3,0.0130434783,-37,-0.1608695652,144,-0.7024390244
1646494,12363.28125,-2672,1.638258737,208,0.1275291232,-15840,9.7118332311,-28,4.0853658537,-67,1.7073170732,-46,2.8048780488,-2,0.0086956522,-37,-0.1608695652,145,-0.7073170732
1647134,12382.8125,-2640,1.6186388719,272,0.1667688535,-16144,9.8982219497,-1,3.6585365854,-60,0.0609756098,-13,0.7926829268,-3,0.0130434783,-37,-0.1608695652,144,-0.7024390244
1647774,12402.34375,-2688,1.6480686695,256,0.1569589209,-16128,9.8884120172,28,4.2073170732,-69,-1.7073170732,-5,0.3048780488,-3,0.0130434783,-41,-0.1782608696,146,-0.712195122
1648414,12421.875,-2864,1.7559779277,352,0.2158185162,-16096,9.8687921521,28,4.2073170732,-69,-1.7073170732,-5,0.3048780488,-2,0.0086956522,-38,-0.1652173913,144,-0.7024390244
1649054,12441.40625,-3072,1.8835070509,448,0.2746781116,-16064,9.8491722869,66,4.0853658537,-67,-4.0243902439,18,-1.0975609756,-1,0.0043478261,-40,-0.1739130435,143,-0.6975609756
1649694,12460.9375,-3104,1.903126916,384,0.2354383814,-16048,9.8393623544,79,5.0609756098,-83,-4.8170731707,46,-2.8048780488,0,0,-41,-0.1782608696,145,-0.7073170732
1650334,12480.46875,-2976,1.8246474555,320,0.1961986511,-16272,9.9767014102,79,5.0609756098,-83,-4.8170731707,46,-2.8048780488,-2,0.0086956522,-37,-0.1608695652,144,-0.7024390244
1650974,12500,-2736,1.6774984672,352,0.2158185162,-16320,10.0061312078,50,5.6097560976,-92,-3.0487804878,47,-2.8658536585,0,0,-38,-0.1652173913,142,-0.6926829268
1651614,12519.53125,-2976,1.8246474555,320,0.1961986511,-16256,9.9668914776,50,5.6097560976,-92,-3.0487804878,47,-2.8658536585,0,0,-38,-0.1652173913,143,-0.6975609756
1652254,12539.0625,-3040,1.8638871858,464,0.2844880441,-16208,9.93746168,57,5.5487804878,-91,-3.4756097561,77,-4.6951219512,-1,0.0043478261,-42,-0.1826086957,145,-0.7073170732
1652894,12558.59375,-2704,1.6578786021,352,0.2158185162,-16096,9.8687921521,18,5.6097560976,-92,-1.0975609756,101,-6.1585365854,-1,0.0043478261,-43,-0.1869565217,144,-0.7024390244
1653534,12578.125,-2624,1.6088289393,448,0.2746781116,-16032,9.8295524218,18,5.6097560976,-92,-1.0975609756,101,-6.1585365854,0,0,-40,-0.1739130435,143,-0.6975609756
1654174,12597.65625,-2608,1.5990190067,496,0.3041079093,-16192,9.9276517474,86,5.487804878,-90,-5.243902439,119,-7.256097561,-2,0.0086956522,-37,-0.1608695652,142,-0.6926829268
1654814,12617.1875,-2560,1.5695892091,384,0.2354383814,-16080,9.8589822195,86,5.487804878,-90,-5.243902439,119,-7.256097561,-1,0.0043478261,-39,-0.1695652174,143,-0.6975609756
1655454,12636.71875,-2576,1.5793991416,480,0.2942979767,-16208,9.93746168,61,6.8292682927,-112,-3.7195121951,109,-6.6463414634,0,0,-38,-0.1652173913,145,-0.7073170732
1656094,12656.25,-2544,1.5597792765,416,0.2550582465,-16112,9.8786020846,54,7.6829268293,-126,-3.2926829268,105,-6.4024390244,1,-0.0043478261,-39,-0.1695652174,142,-0.6926829268
1656734,12675.78125,-2528,1.549969344,432,0.264868179,-15968,9.7903126916,54,7.6829268293,-126,-3.2926829268,105,-6.4024390244,0,0,-44,-0.1913043478,144,-0.7024390244
1657374,12695.3125,-2656,1.6284488044,528,0.3237277744,-15856,9.7216431637,46,8.2317073171,-135,-2.8048780488,98,-5.9756097561,0,0,-41,-0.1782608696,144,-0.7024390244
1658014,12714.84375,-2464,1.5107296137,608,0.3727774372,-15616,9.5744941754,46,8.2317073171,-135,-2.8048780488,98,-5.9756097561,254,-1.1043478261,-41,-0.1782608696,142,-0.6926829268
1658654,12734.375,-2496,1.5303494788,624,0.3825873697,-15488,9.4960147149,28,7.8048780488,-128,-1.7073170732,112,-6.8292682927,2,-0.0086956522,-45,-0.1956521739,144,-0.7024390244
1659294,12753.90625,-2512,1.5401594114,720,0.4414469651,-15568,9.5450643777,40,7.6829268293,-126,-2.4390243902,99,-6.0365853659,-1,0.0043478261,-39,-0.1695652174,141,-0.687804878
1659934,12773.4375,-2224,1.3635806254,688,0.4218270999,-15552,9.5352544451,40,7.6829268293,-126,-2.4390243902,99,-6.0365853659,-1,0.0043478261,-41,-0.1782608696,141,-0.687804878
1660574,12792.96875,-2192,1.3439607603,672,0.4120171674,-15504,9.5058246475,72,6.7682926829,-111,-4.3902439024,90,-5.487804878,-1,0.0043478261,-45,-0.1956521739,142,-0.6926829268
1661214,12812.5,-2544,1.5597792765,736,0.4512568976,-15472,9.4862047823,76,5.9756097561,-98,-4.6341463415,84,-5.1219512195,0,0,-46,-0.2,142,-0.6926829268
1661854,12832.03125,-2448,1.5009196812,768,0.4708767627,-15376,9.427345187,76,5.9756097561,-98,-4.6341463415,84,-5.1219512195,0,0,-44,-0.1913043478,142,-0.6926829268
1662494,12851.5625,-2400,1.4714898835,784,0.4806866953,-15424,9.4567749847,27,5.1829268293,-85,-1.6463414634,74,-4.512195122,-1,0.0043478261,-40,-0.1739130435,139,-0.6780487805
1663134,12871.09375,-2240,1.3733905579,848,0.5199264255,-15488,9.4960147149,27,5.1829268293,-85,-1.6463414634,74,-4.512195122,-3,0.0130434783,-42,-0.1826086957,140,-0.6829268293
1663774,12890.625,-2352,1.4420600858,848,0.5199264255,-15584,9.5548743102,62,5.1219512195,-84,-3.7804878049,57,-3.4756097561,-3,0.0130434783,-45,-0.1956521739,142,-0.6926829268
1664414,12910.15625,-2400,1.4714898835,960,0.5885959534,-15664,9.603923973,48,5.0609756098,-83,-2.9268292683,36,-2.1951219512,3,-0.0130434783,-46,-0.2,141,-0.687804878
1665054,12929.6875,-2448,1.5009196812,912,0.5591661557,-15744,9.6529736358,48,5.0609756098,-83,-2.9268292683,36,-2.1951219512,-1,0.0043478261,-42,-0.1826086957,140,-0.6829268293
1665694,12949.21875,-2432,1.4911097486,928,0.5689760883,-15776,9.6725935009,47,5.3048780488,-87,-2.8658536585,15,-0.9146341463,0,0,-42,-0.1826086957,141,-0.687804878
1666334,12968.75,-2560,1.5695892091,928,0.5689760883,-15792,9.6824034335,47,5.3048780488,-87,-2.8658536585,15,-0.9146341463,0,0,-43,-0.1869565217,142,-0.6926829268
1666974,12988.28125,-2528,1.549969344,976,0.598405886,-15648,9.5941140405,-11,5.3048780488,-87,0.6707317073,-1,0.0609756098,1,-0.0043478261,-43,-0.1869565217,142,-0.6926829268
1667614,13007.8125,-2464,1.5107296137,992,0.6082158185,-15680,9.6137339056,-10,5.0609756098,-83,0.6097560976,-12,0.7317073171,0,0,-40,-0.1739130435,140,-0.6829268293
1668254,13027.34375,-2528,1.549969344,944,0.5787860208,-15504,9.5058246475,-10,5.0609756098,-83,0.6097560976,-12,0.7317073171,0,0,-47,-0.2043478261,141,-0.687804878
1668894,13046.875,-2512,1.5401594114,1040,0.6376456162,-15504,9.5058246475,-5,4.3902439024,-72,0.3048780488,-22,1.3414634146,0,0,-40,-0.1739130435,142,-0.6926829268
1669534,13066.40625,-2448,1.5009196812,976,0.598405886,-15520,9.51563458,14,3.4756097561,-57,-0.8536585366,-25,1.5243902439,2,-0.0086956522,-45,-0.1956521739,140,-0.6829268293
1670174,13085.9375,-2576,1.5793991416,1056,0.6474555487,-15456,9.4763948498,14,3.4756097561,-57,-0.8536585366,-25,1.5243902439,-2,0.0086956522,-40,-0.1739130435,139,-0.6780487805
1670814,13105.46875,-2688,1.6480686695,1088,0.6670754139,-15440,9.4665849172,-1,2.5,-41,0.0609756098,-20,1.2195121951,3,-0.0130434783,-43,-0.1869565217,140,-0.6829268293
1671454,13125,-2832,1.7363580625,1072,0.6572654813,-15488,9.4960147149,-1,2.5,-41,0.0609756098,-20,1.2195121951,-2,0.0086956522,-40,-0.1739130435,140,-0.6829268293
1672094,13144.53125,-2688,1.6480686695,1088,0.6670754139,-15488,9.4960147149,-29,2.012195122,-33,1.7682926829,-24,1.4634146341,1,-0.0043478261,-40,-0.1739130435,138,-0.6731707317
1672734,13164.0625,-2512,1.5401594114,1120,0.686695279,-15488,9.4960147149,35,1.2195121951,-20,-2.1341463415,-18,1.0975609756,-1,0.0043478261,-40,-0.1739130435,138,-0.6731707317
1673374,13183.59375,-2704,1.6578786021,976,0.598405886,-15552,9.5352544451,35,1.2195121951,-20,-2.1341463415,-18,1.0975609756,-2,0.0086956522,-37,-0.1608695652,140,-0.6829268293
1674014,13203.125,-2864,1.7559779277,912,0.5591661557,-15680,9.6137339056,37,0.7926829268,-13,-2.256097561,-21,1.2804878049,-3,0.0130434783,-38,-0.1652173913,138,-0.6731707317
1674654,13222.65625,-3008,1.8442673207,1040,0.6376456162,-15840,9.7118332311,37,0.7926829268,-13,-2.256097561,-21,1.2804878049,0,0,-38,-0.1652173913,140,-0.6829268293
1675294,13242.1875,-2784,1.7069282649,960,0.5885959534,-15920,9.7608828939,-9,0.243902439,-4,0.5487804878,-19,1.1585365854,-1,0.0043478261,-41,-0.1782608696,139,-0.6780487805
1675934,13261.71875,-2736,1.6774984672,928,0.5689760883,-15760,9.6627835684,20,0.4268292683,-7,-1.2195121951,-13,0.7926829268,1,-0.0043478261,-42,-0.1826086957,139,-0.6780487805
1676574,13281.25,-2864,1.7559779277,880,0.5395462906,-15824,9.7020232986,20,0.4268292683,-7,-1.2195121951,-13,0.7926829268,-2,0.0086956522,-42,-0.1826086957,140,-0.6829268293
1677214,13300.78125,-2928,1.7952176579,896,0.5493562232,-15840,9.7118332311,-5,0.6707317073,-11,0.3048780488,-13,0.7926829268,1,-0.0043478261,-43,-0.1869565217,142,-0.6926829268
1677854,13320.3125,-2672,1.638258737,800,0.4904966278,-15808,9.692213366,-5,0.6707317073,-11,0.3048780488,-13,0.7926829268,1,-0.0043478261,-44,-0.1913043478,142,-0.6926829268
1678494,13339.84375,-2768,1.6971183323,800,0.4904966278,-15824,9.7020232986,2,0.5487804878,-9,-0.1219512195,-20,1.2195121951,-2,0.0086956522,-41,-0.1782608696,140,-0.6829268293
1679134,13359.375,-2832,1.7363580625,704,0.4316370325,-15872,9.7314530963,-3,0.6097560976,-10,0.1829268293,-17,1.0365853659,1,-0.0043478261,-43,-0.1869565217,142,-0.6926829268
1679774,13378.90625,-2880,1.7657878602,720,0.4414469651,-15936,9.7706928265,-3,0.6097560976,-10,0.1829268293,-17,1.0365853659,2,-0.0086956522,-42,-0.1826086957,140,-0.6829268293
1680414,13398.4375,-2848,1.7461679951,736,0.4512568976,-15984,9.8001226242,-49,0.243902439,-4,2.987804878,-9,0.5487804878,0,0,-41,-0.1782608696,138,-0.6731707317
1681054,13417.96875,-2720,1.6676885346,752,0.4610668302,-16032,9.8295524218,-23,0.7317073171,-12,1.4024390244,-7,0.4268292683,0,0,-44,-0.1913043478,141,-0.687804878
1681694,13437.5,-2688,1.6480686695,688,0.4218270999,-16192,9.9276517474,-23,0.7317073171,-12,1.4024390244,-7,0.4268292683,0,0,-39,-0.1695652174,141,-0.687804878
1682334,13457.03125,-2704,1.6578786021,640,0.3923973023,-16176,9.9178418148,15,2.012195122,-33,-0.9146341463,-14,0.8536585366,1,-0.0043478261,-41,-0.1782608696,141,-0.687804878
1682974,13476.5625,-2848,1.7461679951,624,0.3825873697,-16128,9.8884120172,15,2.012195122,-33,-0.9146341463,-14,0.8536585366,1,-0.0043478261,-41,-0.1782608696,140,-0.6829268293
1683614,13496.09375,-2912,1.7854077253,544,0.3335377069,-16192,9.9276517474,6,2.743902439,-45,-0.3658536585,-26,1.5853658537,-1,0.0043478261,-40,-0.1739130435,141,-0.687804878
1684254,13515.625,-2928,1.7952176579,576,0.353157572,-16128,9.8884120172,-8,4.0853658537,-67,0.487804878,-28,1.7073170732,-2,0.0086956522,-44,-0.1913043478,142,-0.6926829268
1684894,13535.15625,-2880,1.7657878602,528,0.3237277744,-16016,9.8197424893,-8,4.0853658537,-67,0.487804878,-28,1.7073170732,0,0,-41,-0.1782608696,140,-0.6829268293
1685534,13554.6875,-2848,1.7461679951,528,0.3237277744,-15856,9.7216431637,-6,4.0853658537,-67,0.3658536585,-27,1.6463414634,0,0,-41,-0.1782608696,141,-0.687804878
1686174,13574.21875,-2960,1.814837523,496,0.3041079093,-15904,9.7510729614,-6,4.0853658537,-67,0.3658536585,-27,1.6463414634,0,0,-38,-0.1652173913,142,-0.6926829268
1686814,13593.75,-2928,1.7952176579,528,0.3237277744,-15792,9.6824034335,3,3.7195121951,-61,-0.1829268293,-12,0.7317073171,1,-0.0043478261,-37,-0.1608695652,141,-0.687804878
1687454,13613.28125,-2880,1.7657878602,544,0.3335377069,-15792,9.6824034335,-6,3.2317073171,-53,0.3658536585,-2,0.1219512195,-1,0.0043478261,-41,-0.1782608696,140,-0.6829268293
1688094,13632.8125,-2832,1.7363580625,672,0.4120171674,-15696,9.6235438381,-6,3.2317073171,-53,0.3658536585,-2,0.1219512195,2,-0.0086956522,-43,-0.1869565217,142,-0.6926829268
1688734,13652.34375,-2864,1.7559779277,672,0.4120171674,-15680,9.6137339056,11,3.2317073171,-53,-0.6707317073,-8,0.487804878,0,0,-39,-0.1695652174,140,-0.6829268293
1689374,13671.875,-2928,1.7952176579,576,0.353157572,-15520,9.51563458,11,3.2317073171,-53,-0.6707317073,-8,0.487804878,0,0,-39,-0.1695652174,139,-0.6780487805
1690014,13691.40625,-2816,1.72654813,624,0.3825873697,-15568,9.5450643777,-2,3.5365853659,-58,0.1219512195,-14,0.8536585366,0,0,-41,-0.1782608696,140,-0.6829268293
1690654,13710.9375,-2720,1.6676885346,720,0.4414469651,-15680,9.6137339056,26,2.743902439,-45,-1.5853658537,-13,0.7926829268,3,-0.0130434783,-44,-0.1913043478,141,-0.687804878
1691294,13730.46875,-2992,1.8344573881,768,0.4708767627,-15552,9.5352544451,26,2.743902439,-45,-1.5853658537,-13,0.7926829268,1,-0.0043478261,-37,-0.1608695652,140,-0.6829268293
1691934,13750,-3040,1.8638871858,704,0.4316370325,-15584,9.5548743102,10,2.1341463415,-35,-0.6097560976,-8,0.487804878,1,-0.0043478261,-41,-0.1782608696,139,-0.6780487805
1692574,13769.53125,-2880,1.7657878602,688,0.4218270999,-15744,9.6529736358,15,2.012195122,-33,-0.9146341463,0,0,0,0,-38,-0.1652173913,141,-0.687804878
14155659,394112.701416016,-6401,3.9245861435,1536,0.9417535254,-3024,1.8540772532,30,576.0365853659,-9447,-1.8292682927,49,-2.987804878,-28670,124.652173913,0,0,-7999,39.0195121951
13893518,898112.79296875,-7937,4.8663396689,256,0.1569589209,-2960,1.814837523,158,544.8170731707,-8935,-9.6341463415,-27,1.6463414634,24578,-106.8608695652,0,0,12482,-60.887804878
14221197,908112.762451172,-8961,5.4941753525,-1281,-0.7854077253,-2704,1.6578786021,30,497.987804878,-8167,-1.8292682927,-3,0.1829268293,-8190,35.6086956522,2,0.0086956522,194,-0.9463414634
14155659,1418112.70141602,-8961,5.4941753525,-1281,-0.7854077253,-2608,1.5990190067,158,466.7682926829,-7655,-9.6341463415,-3,0.1829268293,-20478,89.0347826087,2,0.0086956522,-3903,19.0390243902
13893517,1922112.76245117,-8449,5.1802575107,-1793,-1.0993255671,-2832,1.7363580625,30,419.9390243902,-6887,-1.8292682927,66,-4.0243902439,-24574,106.8434782609,1,0.0043478261,8386,-40.9073170732
14286733,1934112.76245117,-8449,5.1802575107,-1793,-1.0993255671,-3136,1.9227467811,158,388.7195121951,-6375,-9.6341463415,66,-4.0243902439,-8190,35.6086956522,1,0.0043478261,16578,-80.8682926829
14417806,1938112.79296875,-9473,5.8080931944,-3585,-2.1980380135,-3056,1.8736971183,30,341.8902439024,-5607,-1.8292682927,9,-0.5487804878,-12286,53.4173913043,-1,-0.0043478261,-16191,78.9804878049
14155661,2442112.76245117,-10753,6.5928877989,-2817,-1.7271612508,-2864,1.7559779277,158,310.6707317073,-5095,-9.6341463415,16,-0.9756097561,-16382,71.2260869565,2,0.0086956522,24769,-120.8243902439
14024588,2950112.73193359,-10753,6.5928877989,-2817,-1.7271612508,-2960,1.814837523,30,263.8414634146,-4327,-1.8292682927,16,-0.9756097561,-20478,89.0347826087,0,0,20673,-100.843902439
14286730,2958112.67089844,-11009,6.7498467198,-769,-0.4714898835,-3104,1.903126916,158,232.6219512195,-3815,-9.6341463415,36,-2.1951219512,-16382,71.2260869565,0,0,-32575,158.9024390244
14417803,2962112.70141602,-15105,9.2611894543,1280,0.7847946045,-3056,1.8736971183,30,185.7926829268,-3047,-1.8292682927,51,-3.1097560976,20482,-89.052173913,0,0,-32575,158.9024390244
14221196,3468112.73193359,-15105,9.2611894543,1280,0.7847946045,-3168,1.9423666462,158,154.5731707317,-2535,-9.6341463415,51,-3.1097560976,12290,-53.4347826087,0,0,24769,-120.8243902439
14483340,3476112.73193359,-18177,11.1446965052,1536,0.9417535254,-3200,1.9619865113,30,107.743902439,-1767,-1.8292682927,28,-1.7073170732,4098,-17.8173913043,1,0.0043478261,-28479,138.9219512195
14352268,3984112.73193359,-18177,11.1446965052,1536,0.9417535254,-3120,1.9129368486,158,76.5243902439,-1255,-9.6341463415,28,-1.7073170732,8194,-35.6260869565,1,0.0043478261,-24383,118.9414634146
14155659,4490112.70141602,-18689,11.458614347,-257,-0.1575720417,-3008,1.8442673207,30,29.6951219512,-487,-1.8292682927,-16,0.9756097561,-28670,124.652173913,0,0,8386,-40.9073170732
14024590,4998112.79296875,-16129,9.889025138,3072,1.8835070509,-2896,1.7755977928,158,-1.5853658537,26,-9.6341463415,31,-1.8902439024,-8190,35.6086956522,0,0,8386,-40.9073170732
13893517,5506112.76245117,-16129,9.889025138,3072,1.8835070509,-2976,1.8246474555,30,-48.4146341463,794,-1.8292682927,31,-1.8902439024,24578,-106.8608695652,1,0.0043478261,-3902,19.0341463415
14155659,5514112.70141602,-15617,9.5751072961,3584,2.1974248927,-3088,1.8933169834,158,-79.6341463415,1306,-9.6341463415,21,-1.2804878049,24578,-106.8608695652,0,0,-7998,39.0146341463
14090123,6024112.70141602,-15617,9.5751072961,3584,2.1974248927,-2992,1.8344573881,30,-126.4634146341,2074,-1.8292682927,21,-1.2804878049,-28670,124.652173913,1,0.0043478261,24770,-120.8292682927
14221195,6028112.70141602,-15873,9.732066217,2048,1.2556713673,-2864,1.7559779277,158,-157.6829268293,2586,-9.6341463415,24,-1.4634146341,8194,-35.6260869565,-1,-0.0043478261,-16190,78.9756097561
14221194,6540112.67089844,-14081,8.6333537707,2048,1.2556713673,-3104,1.903126916,30,-204.512195122,3354,-1.8292682927,36,-2.1951219512,2,-0.0086956522,3,0.0130434783,-12094,58.9951219512
14090123,7048112.70141602,-14081,8.6333537707,2048,1.2556713673,-3136,1.9227467811,158,-235.7317073171,3866,-9.6341463415,36,-2.1951219512,16386,-71.2434782609,4,0.0173913043,-16190,78.9756097561
13893517,7554112.76245117,-15873,9.732066217,1792,1.0987124464,-2992,1.8344573881,30,-282.5609756098,4634,-1.8292682927,-4,0.243902439,-24574,106.8434782609,2,0.0086956522,-24382,118.9365853659
14352269,7568112.76245117,-15873,9.732066217,1792,1.0987124464,-2976,1.8246474555,158,-313.7804878049,5146,-9.6341463415,-4,0.243902439,8195,-35.6304347826,-2,-0.0086956522,-7998,39.0146341463
14155659,8074112.70141602,-15873,9.732066217,2048,1.2556713673,-2928,1.7952176579,30,-360.6097560976,5914,-1.8292682927,14,-0.8536585366,-12286,53.4173913043,2,0.0086956522,-28478,138.9170731707
13959052,8580112.73193359,-13569,8.3194359289,0,0,-3088,1.8933169834,158,-391.8292682927,6426,-9.6341463415,28,-1.7073170732,-8190,35.6086956522,3,0.0130434783,24770,-120.8292682927
13893516,9090112.73193359,-13569,8.3194359289,0,0,-3056,1.8736971183,30,-438.6585365854,7194,-1.8292682927,28,-1.7073170732,-20478,89.0347826087,4,0.0173913043,28866,-140.8097560976
14024588,9094112.73193359,-13825,8.4763948498,-1,-0.0006131208,-3040,1.8638871858,158,-469.8780487805,7706,-9.6341463415,11,-0.6707317073,-32766,142.4608695652,2,0.0086956522,-32574,158.8975609756
14352267,9104112.70141602,-13825,8.4763948498,3072,1.8835070509,-2960,1.814837523,30,-516.7073170732,8474,-1.8292682927,13,-0.7926829268,-32766,142.4608695652,1,0.0043478261,20674,-100.8487804878
14417803,9106112.70141602,-13825,8.4763948498,3072,1.8835070509,-2912,1.7854077253,158,-547.9268292683,8986,-9.6341463415,13,-0.7926829268,-28670,124.652173913,-1,-0.0043478261,-32574,158.8975609756
13893516,9602112.73193359,-15361,9.4181483752,0,0,-3024,1.8540772532,30,-594.756097561,9754,-1.8292682927,-6,0.3658536585,-8190,35.6086956522,2,0.0086956522,16578,-80.8682926829
14090122,9608112.67089844,-15361,9.4181483752,0,0,-3072,1.8835070509,158,-625.9756097561,10266,-9.6341463415,-6,0.3658536585,-12286,53.4173913043,2,0.0086956522,4290,-20.9268292683
14155659,9610112.70141602,-16897,10.3599019007,-3073,-1.8841201717,-3024,1.8540772532,30,-672.8048780488,11034,-1.8292682927,-22,1.3414634146,-12286,53.4173913043,0,0,20674,-100.8487804878
13893517,10114112.7624512,-16385,10.0459840589,-3329,-2.0410790926,-3024,1.8540772532,158,-704.0243902439,11546,-9.6341463415,-10,0.6097560976,4099,-17.8217391304,1,0.0043478261,12482,-60.887804878
14221194,10124112.6708984,-16385,10.0459840589,-3329,-2.0410790926,-3024,1.8540772532,30,-750.8536585366,12314,-1.8292682927,-10,0.6097560976,-8190,35.6086956522,4,0.0173913043,28866,-140.8097560976
13762444,10622112.7319336,-15105,9.2611894543,-3073,-1.8841201717,-3040,1.8638871858,158,-782.0731707317,12826,-9.6341463415,-2,0.1219512195,-12286,53.4173913043,1,0.0043478261,-20286,98.956097561
13827981,10624112.7624512,-15105,9.2611894543,-3073,-1.8841201717,-3104,1.903126916,30,-828.9024390244,13594,-1.8292682927,-2,0.1219512195,4099,-17.8217391304,2,0.0086956522,195,-0.9512195122
14286732,10638112.7319336,-15105,9.2611894543,-2049,-1.256284488,-3120,1.9129368486,158,-860.1219512195,14106,-9.6341463415,1,-0.0609756098,-8190,35.6086956522,2,0.0086956522,-16190,78.9756097561
14286731,11150112.701416,-15105,9.2611894543,-4097,-2.5119558553,-3216,1.9717964439,30,-906.9512195122,14874,-1.8292682927,-26,1.5853658537,3,-0.0130434783,2,0.0086956522,-12094,58.9951219512
14024587,11654112.701416,-15105,9.2611894543,-4097,-2.5119558553,-3136,1.9227467811,158,-938.1707317073,15386,-9.6341463415,-26,1.5853658537,4099,-17.8217391304,3,0.0130434783,-32574,158.8975609756
14221194,11660112.6708984,-12801,7.8485591662,-2561,-1.5702023299,-3024,1.8540772532,30,-985,16154,-1.8292682927,3,-0.1829268293,3,-0.0130434783,2,0.0086956522,-32574,158.8975609756
13893516,12162112.7319336,-12801,7.8485591662,-2561,-1.5702023299,-3168,1.9423666462,158,-1016.2195121951,16666,-9.6341463415,3,-0.1829268293,4099,-17.8217391304,1,0.0043478261,12482,-60.887804878
14221195,12172112.701416,-12545,7.6916002452,-2049,-1.256284488,-3248,1.991416309,30,-1063.0487804878,17434,-1.8292682927,14,-0.8536585366,4099,-17.8217391304,3,0.0130434783,-32574,158.8975609756
13893514,12674112.6708984,-14337,8.7903126916,-513,-0.3145309626,-3200,1.9619865113,158,-1094.2682926829,17946,-9.6341463415,-13,0.7926829268,-16382,71.2260869565,1,0.0043478261,28866,-140.8097560976
14155658,12682112.6708984,-14337,8.7903126916,-513,-0.3145309626,-3120,1.9129368486,30,-1141.0975609756,18714,-1.8292682927,-13,0.7926829268,-16382,71.2260869565,1,0.0043478261,-24382,118.9365853659
14352267,12688112.701416,-13313,8.162477008,0,0,-3120,1.9129368486,158,-1172.3170731707,19226,-9.6341463415,-11,0.6707317073,-16382,71.2260869565,3,0.0130434783,-24382,118.9365853659
14024589,13190112.7624512,-13057,8.0055180871,-769,-0.4714898835,-3136,1.9227467811,30,-1219.1463414634,19994,-1.8292682927,-1,0.0609756098,-24574,106.8434782609,2,0.0086956522,24770,-120.8292682927
13893516,13698112.7319336,-13057,8.0055180871,-769,-0.4714898835,-3040,1.8638871858,158,-1250.3658536585,20506,-9.6341463415,-1,0.0609756098,-16382,71.2260869565,0,0,16578,-80.8682926829
13827980,14208112.7319336,-12801,7.8485591662,-257,-0.1575720417,-3056,1.8736971183,30,-1297.1951219512,21274,-1.8292682927,-1,0.0609756098,3,-0.0130434783,0,0,24770,-120.8292682927
14221195,14220112.701416,-12801,7.8485591662,-257,-0.1575720417,-3008,1.8442673207,158,-1328.4146341463,21786,-9.6341463415,-1,0.0609756098,3,-0.0130434783,0,0,-7998,39.0146341463
14155660,14730112.7319336,-10753,6.5928877989,768,0.4708767627,-3152,1.9325567137,30,-1375.243902439,22554,-1.8292682927,1,-0.0609756098,8195,-35.6304347826,1,0.0043478261,195,-0.9512195122
14090123,15240112.701416,-9217,5.6511342735,0,0,-3104,1.903126916,158,-1406.4634146342,23066,-9.6341463415,-11,0.6707317073,24579,-106.8652173913,2,0.0086956522,-20286,98.956097561
14155660,15242112.7319336,-9217,5.6511342735,0,0,-2960,1.814837523,30,-1453.2926829268,23834,-1.8292682927,-11,0.6707317073,-32765,142.4565217391,1,0.0043478261,-28478,138.9170731707
14417802,15250112.6708984,-11265,6.9068056407,-1025,-0.6284488044,-2864,1.7559779277,158,-1484.512195122,24346,-9.6341463415,-27,1.6463414634,20483,-89.0565217391,1,0.0043478261,16578,-80.8682926829
14352267,15760112.701416,-11265,6.9068056407,-1025,-0.6284488044,-2848,1.7461679951,30,-1531.3414634146,25114,-1.8292682927,-27,1.6463414634,12291,-53.4391304348,1,0.0043478261,16578,-80.8682926829
14352269,15760112.7624512,-11521,7.0637645616,-1025,-0.6284488044,-2928,1.7952176579,158,-1562.5609756098,25626,-9.6341463415,10,-0.6097560976,-8190,35.6086956522,4,0.0173913043,20674,-100.8487804878
13827981,16256112.7624512,-9985,6.1220110362,-2305,-1.413243409,-3072,1.8835070509,30,-1609.3902439024,26394,-1.8292682927,-19,1.1585365854,8195,-35.6304347826,2,0.0086956522,4290,-20.9268292683
13959051,16260112.701416,-9985,6.1220110362,-2305,-1.413243409,-3008,1.8442673207,158,-1640.6097560976,26906,-9.6341463415,-19,1.1585365854,8195,-35.6304347826,-1,-0.0043478261,12482,-60.887804878
14221195,16268112.701416,-10497,6.435928878,-1281,-0.7854077253,-2944,1.8050275904,30,-1687.4390243902,27674,-1.8292682927,5,-0.3048780488,-16382,71.2260869565,-1,-0.0043478261,-3903,19.0390243902
14155658,16778112.6708984,-11777,7.2207234825,-1793,-1.0993255671,-2976,1.8246474555,158,-1718.6585365854,28186,-9.6341463415,16,-0.9756097561,-32766,142.4608695652,1,0.0043478261,4290,-20.9268292683
14352266,16784112.6708984,-11777,7.2207234825,-1793,-1.0993255671,-3136,1.9227467811,30,-1765.4878048781,28954,-1.8292682927,16,-0.9756097561,-8190,35.6086956522,0,0,4290,-20.9268292683
14417801,16786112.6403809,-12289,7.5346413243,-4097,-2.5119558553,-3104,1.903126916,158,-1796.7073170732,29466,-9.6341463415,-6,0.3658536585,16387,-71.247826087,2,0.0086956522,-32575,158.9024390244
14024587,17286112.701416,-12289,7.5346413243,-4097,-2.5119558553,-3056,1.8736971183,30,-1843.5365853659,30234,-1.8292682927,-6,0.3658536585,16387,-71.247826087,-1,-0.0043478261,-12095,59
14483339,17300112.701416,-15105,9.2611894543,-2305,-1.413243409,-3104,1.903126916,158,-1874.756097561,30746,-9.6341463415,3,-0.1829268293,16387,-71.247826087,0,0,-16191,78.9804878049
14155659,17802112.701416,-15105,9.2611894543,-3073,-1.8841201717,-2848,1.7461679951,30,-1921.5853658537,31514,-1.8292682927,8,-0.487804878,16387,-71.247826087,0,0,12482,-60.887804878
14090123,18312112.701416,-15105,9.2611894543,-3073,-1.8841201717,-2960,1.814837523,158,-1952.8048780488,32026,-9.6341463415,8,-0.487804878,8195,-35.6304347826,0,0,8386,-40.9073170732
14090122,18824112.6708984,-14593,8.9472716125,-1281,-0.7854077253,-3040,1.8638871858,30,1996.4634146342,-32742,-1.8292682927,29,-1.7682926829,-12286,53.4173913043,0,0,16578,-80.8682926829
14417802,18834112.6708984,-14593,8.9472716125,-1281,-0.7854077253,-3120,1.9129368486,158,1965.243902439,-32230,-9.6341463415,29,-1.7682926829,8195,-35.6304347826,2,0.0086956522,28866,-140.8097560976
14352268,19344112.7319336,-15105,9.2611894543,-2305,-1.413243409,-3120,1.9129368486,30,1918.4146341463,-31462,-1.8292682927,0,0,4099,-17.8217391304,0,0,-28478,138.9170731707
14221194,19852112.6708984,-15105,9.2611894543,-1537,-0.9423666462,-3056,1.8736971183,158,1887.1951219512,-30950,-9.6341463415,2,-0.1219512195,12291,-53.4391304348,-1,-0.0043478261,-7998,39.0146341463
14483337,19860112.6403809,-15105,9.2611894543,-1537,-0.9423666462,-2944,1.8050275904,30,1840.3658536585,-30182,-1.8292682927,2,-0.1219512195,12291,-53.4391304348,2,0.0086956522,195,-0.9512195122
14090124,20360112.7319336,-13313,8.162477008,-1537,-0.9423666462,-3024,1.8540772532,158,1809.1463414634,-29670,-9.6341463415,23,-1.4024390244,3,-0.0130434783,-1,-0.0043478261,-16190,78.9756097561
14090122,20872112.6708984,-13313,8.162477008,-1537,-0.9423666462,-3056,1.8736971183,30,1762.3170731707,-28902,-1.8292682927,23,-1.4024390244,12291,-53.4391304348,0,0,-20286,98.956097561
14155658,20874112.6708984,-13057,8.0055180871,-2561,-1.5702023299,-3072,1.8835070509,158,1731.0975609756,-28390,-9.6341463415,-1,0.0609756098,20483,-89.0565217391,2,0.0086956522,-24382,118.9365853659
14286729,20878112.6403809,-11009,6.7498467198,-1793,-1.0993255671,-3008,1.8442673207,30,1684.2682926829,-27622,-1.8292682927,14,-0.8536585366,16387,-71.247826087,2,0.0086956522,-7998,39.0146341463
14221194,21388112.6708984,-11009,6.7498467198,-1793,-1.0993255671,-3040,1.8638871858,158,1653.0487804878,-27110,-9.6341463415,14,-0.8536585366,20483,-89.0565217391,-1,-0.0043478261,-20286,98.956097561
14221194,21388112.6708984,-9473,5.8080931944,-1537,-0.9423666462,-3056,1.8736971183,30,1606.2195121951,-26342,-1.8292682927,33,-2.012195122,24579,-106.8652173913,4,0.0173913043,24770,-120.8292682927
14024588,21894112.7319336,-10753,6.5928877989,-1025,-0.6284488044,-3104,1.903126916,158,1575,-25830,-9.6341463415,17,-1.0365853659,16387,-71.247826087,0,0,28866,-140.8097560976
14221193,21900112.6403809,-10753,6.5928877989,-1025,-0.6284488044,-3152,1.9325567137,30,1528.1707317073,-25062,-1.8292682927,17,-1.0365853659,4099,-17.8217391304,2,0.0086956522,-32574,158.8975609756
13827981,22400112.7624512,-11521,7.0637645616,-2561,-1.5702023299,-3088,1.8933169834,158,1496.9512195122,-24550,-9.6341463415,-1,0.0609756098,3,-0.0130434783,-1,-0.0043478261,-28478,138.9170731707
14483338,22420112.6708984,-11521,7.0637645616,-2561,-1.5702023299,-3040,1.8638871858,30,1450.1219512195,-23782,-1.8292682927,-1,0.0609756098,-4094,17.8,0,0,24770,-120.8292682927
14417803,22930112.701416,-11777,7.2207234825,-2561,-1.5702023299,-3088,1.8933169834,158,1418.9024390244,-23270,-9.6341463415,30,-1.8292682927,16387,-71.247826087,2,0.0086956522,12482,-60.887804878
14221192,23436112.6098633,-13313,8.162477008,-2305,-1.413243409,-3216,1.9717964439,30,1372.0731707317,-22502,-1.8292682927,9,-0.5487804878,8195,-35.6304347826,1,0.0043478261,12482,-60.887804878
14221194,23436112.6708984,-13313,8.162477008,-2305,-1.413243409,-3280,2.0110361741,158,1340.8536585366,-21990,-9.6341463415,9,-0.5487804878,12291,-53.4391304348,-1,-0.0043478261,16578,-80.8682926829
14417800,23442112.6098633,-13057,8.0055180871,-769,-0.4714898835,-3184,1.9521765788,30,1294.0243902439,-21222,-1.8292682927,-9,0.5487804878,3,-0.0130434783,2,0.0086956522,-32574,158.8975609756
14417802,23442112.6708984,-13057,8.0055180871,-769,-0.4714898835,-3040,1.8638871858,158,1262.8048780488,-20710,-9.6341463415,-9,0.5487804878,3,-0.0130434783,0,0,-16190,78.9756097561
14155658,23946112.6708984,-10497,6.435928878,512,0.3139178418,-3152,1.9325567137,30,1215.9756097561,-19942,-1.8292682927,-6,0.3658536585,3,-0.0130434783,4,0.0173913043,12482,-60.887804878
14024589,24454112.7624512,-12289,7.5346413243,768,0.4708767627,-3184,1.9521765788,158,1184.756097561,-19430,-9.6341463415,-5,0.3048780488,-4094,17.8,3,0.0130434783,20674,-100.8487804878
14221196,24460112.7319336,-12289,7.5346413243,768,0.4708767627,-3088,1.8933169834,30,1137.9268292683,-18662,-1.8292682927,-5,0.3048780488,-16382,71.2260869565,1,0.0043478261,-32574,158.8975609756
14417801,24466112.6403809,-11521,7.0637645616,768,0.4708767627,-3072,1.8835070509,158,1106.7073170732,-18150,-9.6341463415,24,-1.4634146341,-24574,106.8434782609,0,0,28866,-140.8097560976
14155657,24970112.6403809,-11521,7.0637645616,768,0.4708767627,-3200,1.9619865113,30,1059.8780487805,-17382,-1.8292682927,24,-1.4634146341,-16382,71.2260869565,1,0.0043478261,28866,-140.8097560976
14352266,24976112.6708984,-11777,7.2207234825,-1537,-0.9423666462,-3168,1.9423666462,158,1028.6585365854,-16870,-9.6341463415,4,-0.243902439,-20478,89.0347826087,0,0,24770,-120.8292682927
14417801,24978112.6403809,-12801,7.8485591662,-769,-0.4714898835,-3184,1.9521765788,30,981.8292682927,-16102,-1.8292682927,14,-0.8536585366,-8190,35.6086956522,1,0.0043478261,-3903,19.0390243902
14417801,24978112.6403809,-12801,7.8485591662,-769,-0.4714898835,-3216,1.9717964439,158,950.6097560976,-15590,-9.6341463415,14,-0.8536585366,-8190,35.6086956522,0,0,-7999,39.0195121951
14417801,24978112.6403809,-14337,8.7903126916,512,0.3139178418,-3104,1.903126916,30,903.7804878049,-14822,-1.8292682927,-7,0.4268292683,8195,-35.6304347826,3,0.0130434783,4290,-20.9268292683
14024588,25478112.7319336,-12545,7.6916002452,0,0,-3184,1.9521765788,158,872.5609756098,-14310,-9.6341463415,-8,0.487804878,8195,-35.6304347826,-1,-0.0043478261,24770,-120.8292682927
14155657,25482112.6403809,-12545,7.6916002452,0,0,-3072,1.8835070509,30,825.7317073171,-13542,-1.8292682927,-8,0.487804878,-16382,71.2260869565,1,0.0043478261,20674,-100.8487804878
14090123,25992112.701416,-13313,8.162477008,512,0.3139178418,-3136,1.9227467811,158,794.512195122,-13030,-9.6341463415,4,-0.243902439,-24574,106.8434782609,0,0,28866,-140.8097560976
14483338,26004112.6708984,-13313,8.162477008,512,0.3139178418,-3056,1.8736971183,30,747.6829268293,-12262,-1.8292682927,4,-0.243902439,-4094,17.8,0,0,-20286,98.956097561
14155657,26506112.6403809,-13825,8.4763948498,-1,-0.0006131208,-3056,1.8736971183,158,716.4634146341,-11750,-9.6341463415,8,-0.487804878,-4094,17.8,0,0,-24382,118.9365853659
14286730,26510112.6708984,-14593,8.9472716125,-769,-0.4714898835,-3152,1.9325567137,30,669.6341463415,-10982,-1.8292682927,20,-1.2195121951,28675,-124.6739130435,0,0,-32574,158.8975609756
14221194,27020112.6708984,-14593,8.9472716125,-769,-0.4714898835,-3184,1.9521765788,158,638.4146341463,-10470,-9.6341463415,20,-1.2195121951,-32765,142.4565217391,0,0,-32574,158.8975609756
14352265,27024112.6403809,-14593,8.9472716125,-2305,-1.413243409,-3184,1.9521765788,30,591.5853658537,-9702,-1.8292682927,-2,0.1219512195,3,-0.0130434783,0,0,-20286,98.956097561
14417801,27026112.6403809,-14593,8.9472716125,-2305,-1.413243409,-3136,1.9227467811,158,560.3658536585,-9190,-9.6341463415,-2,0.1219512195,24579,-106.8652173913,0,0,-32574,158.8975609756
14352267,27536112.701416,-14081,8.6333537707,-769,-0.4714898835,-3184,1.9521765788,30,513.5365853659,-8422,-1.8292682927,17,-1.0365853659,16387,-71.247826087,0,0,24770,-120.8292682927
14286728,28046112.6098633,-13313,8.162477008,0,0,-3184,1.9521765788,158,482.3170731707,-7910,-9.6341463415,-1,0.0609756098,8195,-35.6304347826,1,0.0043478261,-24382,118.9365853659
14417801,28050112.6403809,-13313,8.162477008,0,0,-3216,1.9717964439,30,435.487804878,-7142,-1.8292682927,-1,0.0609756098,-12286,53.4173913043,5,0.0217391304,194,-0.9463414634
13762444,28542112.7319336,-14081,8.6333537707,512,0.3139178418,-3120,1.9129368486,158,404.2682926829,-6630,-9.6341463415,-4,0.243902439,4099,-17.8217391304,5,0.0217391304,24770,-120.8292682927
14024587,28550112.701416,-14081,8.6333537707,512,0.3139178418,-3200,1.9619865113,30,357.4390243902,-5862,-1.8292682927,-4,0.243902439,-8190,35.6086956522,0,0,194,-0.9463414634
14417801,28562112.6403809,-15361,9.4181483752,-513,-0.3145309626,-3152,1.9325567137,158,326.2195121951,-5350,-9.6341463415,-9,0.5487804878,4099,-17.8217391304,2,0.0086956522,-3903,19.0390243902
14352265,29072112.6403809,-15105,9.2611894543,256,0.1569589209,-3120,1.9129368486,30,279.3902439024,-4582,-1.8292682927,-14,0.8536585366,-16382,71.2260869565,0,0,12482,-60.887804878
14221194,29580112.6708984,-15105,9.2611894543,256,0.1569589209,-3200,1.9619865113,158,248.1707317073,-4070,-9.6341463415,-14,0.8536585366,-12286,53.4173913043,1,0.0043478261,-7999,39.0195121951
14417803,29586112.701416,-15617,9.5751072961,1024,0.6278356836,-3136,1.9227467811,30,201.3414634146,-3302,-1.8292682927,-4,0.243902439,3,-0.0130434783,2,0.0086956522,16578,-80.8682926829
13893517,30082112.7624512,-14593,8.9472716125,-257,-0.1575720417,-3040,1.8638871858,158,170.1219512195,-2790,-9.6341463415,13,-0.7926829268,4099,-17.8217391304,1,0.0043478261,28866,-140.8097560976
14155658,30090112.6708984,-14593,8.9472716125,-257,-0.1575720417,-3232,1.9816063765,30,123.2926829268,-2022,-1.8292682927,13,-0.7926829268,16387,-71.247826087,1,0.0043478261,-20286,98.956097561
14155657,30602112.6403809,-15105,9.2611894543,256,0.1569589209,-3200,1.9619865113,158,92.0731707317,-1510,-9.6341463415,3,-0.1829268293,16387,-71.247826087,1,0.0043478261,-28478,138.9170731707
14417801,30610112.6403809,-15105,9.2611894543,256,0.1569589209,-3072,1.8835070509,30,45.243902439,-742,-1.8292682927,3,-0.1829268293,3,-0.0130434783,0,0,-28478,138.9170731707
14286730,31118112.6708984,-14337,8.7903126916,1792,1.0987124464,-3040,1.8638871858,158,14.0243902439,-230,-9.6341463415,21,-1.2804878049,-24574,106.8434782609,3,0.0130434783,-16190,78.9756097561
14221195,31628112.701416,-12801,7.8485591662,256,0.1569589209,-3088,1.8933169834,30,-32.8658536585,539,-1.8292682927,32,-1.9512195122,-24574,106.8434782609,1,0.0043478261,-12094,58.9951219512
14352266,31632112.6708984,-12801,7.8485591662,256,0.1569589209,-3216,1.9717964439,158,-64.0853658537,1051,-9.6341463415,32,-1.9512195122,3,-0.0130434783,0,0,28866,-140.8097560976
14352264,32144112.6098633,-13313,8.162477008,-2049,-1.256284488,-3136,1.9227467811,30,-110.9146341463,1819,-1.8292682927,-2,0.1219512195,-16382,71.2260869565,0,0,-24382,118.9365853659
14155658,32650112.6708984,-13313,8.162477008,-2049,-1.256284488,-3104,1.903126916,158,-142.1341463415,2331,-9.6341463415,-2,0.1219512195,-4094,17.8,2,0.0086956522,4291,-20.9317073171
14352266,32656112.6708984,-14081,8.6333537707,-2049,-1.256284488,-3008,1.8442673207,30,-188.9634146341,3099,-1.8292682927,-14,0.8536585366,16387,-71.247826087,1,0.0043478261,-24382,118.9365853659
14417800,32658112.6098633,-13825,8.4763948498,-3841,-2.3549969344,-3072,1.8835070509,158,-220.1829268293,3611,-9.6341463415,5,-0.3048780488,8195,-35.6304347826,1,0.0043478261,-28478,138.9170731707
14417801,32658112.6403809,-13825,8.4763948498,-3841,-2.3549969344,-3136,1.9227467811,30,-267.012195122,4379,-1.8292682927,5,-0.3048780488,24579,-106.8652173913,5,0.0217391304,-3902,19.0341463415
14024588,33158112.7319336,-13057,8.0055180871,-4865,-2.982832618,-3120,1.9129368486,158,-298.2317073171,4891,-9.6341463415,-4,0.243902439,16387,-71.247826087,2,0.0086956522,20674,-100.8487804878
14352267,33168112.701416,-12801,7.8485591662,-4353,-2.6689147762,-3232,1.9816063765,30,-345.0609756098,5659,-1.8292682927,-11,0.6707317073,3,-0.0130434783,1,0.0043478261,-20286,98.956097561
14286729,33678112.6403809,-12801,7.8485591662,-4353,-2.6689147762,-3168,1.9423666462,158,-376.2804878049,6171,-9.6341463415,-11,0.6707317073,8195,-35.6304347826,2,0.0086956522,-24382,118.9365853659
13696908,34172112.7319336,-12033,7.3776824034,-3585,-2.1980380135,-3184,1.9521765788,30,-423.1097560976,6939,-1.8292682927,-6,0.3658536585,16387,-71.247826087,2,0.0086956522,-32574,158.8975609756
14155657,34186112.6403809,-12033,7.3776824034,-3585,-2.1980380135,-3248,1.991416309,158,-454.3292682927,7451,-9.6341463415,-6,0.3658536585,8195,-35.6304347826,5,0.0217391304,-20286,98.956097561
13827979,34688112.701416,-11265,6.9068056407,-4097,-2.5119558553,-3184,1.9521765788,30,-501.1585365854,8219,-1.8292682927,-21,1.2804878049,3,-0.0130434783,3,0.0130434783,-20286,98.956097561
13827980,34688112.7319336,-13057,8.0055180871,-4609,-2.8258736971,-3120,1.9129368486,158,-532.3780487805,8731,-9.6341463415,-1,0.0609756098,4099,-17.8217391304,1,0.0043478261,-20286,98.956097561
14286729,34702112.6403809,-13057,8.0055180871,-4609,-2.8258736971,-3088,1.8933169834,30,-579.2073170732,9499,-1.8292682927,-1,0.0609756098,8195,-35.6304347826,0,0,-32574,158.8975609756
14417803,34706112.701416,-14081,8.6333537707,-5377,-3.2967504598,-3104,1.903126916,158,-610.4268292683,10011,-9.6341463415,-12,0.7317073171,24579,-106.8652173913,2,0.0086956522,24770,-120.8292682927
14090122,35208112.6708984,-14081,8.6333537707,-5377,-3.2967504598,-3120,1.9129368486,30,-657.256097561,10779,-1.8292682927,-12,0.7317073171,20483,-89.0565217391,2,0.0086956522,-32574,158.8975609756
14286730,35214112.6708984,-13057,8.0055180871,-4609,-2.8258736971,-3104,1.903126916,158,-688.4756097561,11291,-9.6341463415,6,-0.3658536585,16387,-71.247826087,1,0.0043478261,24770,-120.8292682927
14090122,35720112.6708984,-11777,7.2207234825,-3329,-2.0410790926,-3264,2.0012262416,30,-735.3048780488,12059,-1.8292682927,5,-0.3048780488,3,-0.0130434783,1,0.0043478261,16578,-80.8682926829
14417800,35730112.6098633,-11777,7.2207234825,-3329,-2.0410790926,-3248,1.991416309,158,-766.5243902439,12571,-9.6341463415,5,-0.3048780488,8195,-35.6304347826,2,0.0086956522,194,-0.9463414634
14024588,36230112.7319336,-13313,8.162477008,-3585,-2.1980380135,-3232,1.9816063765,30,-813.3536585366,13339,-1.8292682927,-19,1.1585365854,16387,-71.247826087,2,0.0086956522,24770,-120.8292682927
14352266,36240112.6708984,-13313,8.162477008,-3585,-2.1980380135,-3120,1.9129368486,158,-844.5731707317,13851,-9.6341463415,-19,1.1585365854,4099,-17.8217391304,1,0.0043478261,24770,-120.8292682927
14352266,36240112.6708984,-13313,8.162477008,-1537,-0.9423666462,-3168,1.9423666462,30,-891.4024390244,14619,-1.8292682927,-11,0.6707317073,-32765,142.4565217391,1,0.0043478261,-20286,98.956097561
14286729,36750112.6403809,-13057,8.0055180871,-1793,-1.0993255671,-3120,1.9129368486,158,-922.6219512195,15131,-9.6341463415,-24,1.4634146341,3,-0.0130434783,1,0.0043478261,28866,-140.8097560976
14286728,37262112.6098633,-13057,8.0055180871,-1793,-1.0993255671,-3120,1.9129368486,30,-969.4512195122,15899,-1.8292682927,-24,1.4634146341,20483,-89.0565217391,0,0,-24382,118.9365853659
14417802,37266112.6708984,-14081,8.6333537707,-2561,-1.5702023299,-3184,1.9521765788,158,-1000.6707317073,16411,-9.6341463415,-1,0.0609756098,24579,-106.8652173913,-1,-0.0043478261,28866,-140.8097560976
14155657,37770112.6403809,-12801,7.8485591662,-2305,-1.413243409,-3216,1.9717964439,30,-1047.5,17179,-1.8292682927,-9,0.5487804878,-32765,142.4565217391,2,0.0086956522,-24382,118.9365853659
14155657,37770112.6403809,-12801,7.8485591662,-2305,-1.413243409,-3216,1.9717964439,158,-1078.7195121951,17691,-9.6341463415,-9,0.5487804878,-24573,106.8391304348,0,0,-3902,19.0341463415
14155657,37770112.6403809,-12801,7.8485591662,-2817,-1.7271612508,-3232,1.9816063765,30,-1125.5487804878,18459,-1.8292682927,-14,0.8536585366,16387,-71.247826087,0,0,-32574,158.8975609756
14417801,37778112.6403809,-12801,7.8485591662,-2817,-1.7271612508,-3072,1.8835070509,158,-1156.7682926829,18971,-9.6341463415,-14,0.8536585366,8195,-35.6304347826,4,0.0173913043,-32574,158.8975609756
13827979,38272112.701416,-11777,7.2207234825,-513,-0.3145309626,-3104,1.903126916,30,-1203.5975609756,19739,-1.8292682927,-7,0.4268292683,-4094,17.8,3,0.0130434783,-28478,138.9170731707
14024589,38278112.7624512,-11009,6.7498467198,-513,-0.3145309626,-3152,1.9325567137,158,-1234.8170731707,20251,-9.6341463415,-2,0.1219512195,24579,-106.8652173913,0,0,-24382,118.9365853659
14155658,38282112.6708984,-11009,6.7498467198,-513,-0.3145309626,-3136,1.9227467811,30,-1281.6463414634,21019,-1.8292682927,-2,0.1219512195,4099,-17.8217391304,0,0,-20286,98.956097561
14286729,38286112.6403809,-10753,6.5928877989,-1537,-0.9423666462,-3072,1.8835070509,158,-1312.8658536585,21531,-9.6341463415,2,-0.1219512195,16387,-71.247826087,1,0.0043478261,-32574,158.8975609756
13959050,38788112.6708984,-10753,6.5928877989,-1537,-0.9423666462,-3088,1.8933169834,30,-1359.6951219512,22299,-1.8292682927,2,-0.1219512195,16387,-71.247826087,2,0.0086956522,20674,-100.8487804878
14352266,38800112.6708984,-10753,6.5928877989,-3073,-1.8841201717,-3056,1.8736971183,158,-1390.9146341463,22811,-9.6341463415,-2,0.1219512195,-32765,142.4565217391,4,0.0173913043,-32574,158.8975609756
13959051,39300112.701416,-11521,7.0637645616,-2817,-1.7271612508,-3168,1.9423666462,30,-1437.743902439,23579,-1.8292682927,13,-0.7926829268,12291,-53.4391304348,0,0,12482,-60.887804878
14221195,39308112.701416,-11521,7.0637645616,-2817,-1.7271612508,-3104,1.903126916,158,-1468.9634146342,24091,-9.6341463415,13,-0.7926829268,8195,-35.6304347826,0,0,194,-0.9463414634
14221195,39308112.701416,-14081,8.6333537707,-3073,-1.8841201717,-3040,1.8638871858,30,-1515.7926829268,24859,-1.8292682927,0,0,16387,-71.247826087,1,0.0043478261,4290,-20.9268292683
14352266,39312112.6708984,-14081,8.6333537707,-3073,-1.8841201717,-3120,1.9129368486,158,-1547.012195122,25371,-9.6341463415,0,0,16387,-71.247826087,5,0.0217391304,-3903,19.0390243902
13959051,39812112.701416,-15873,9.732066217,-3841,-2.3549969344,4384,-2.6879215205,30,-1593.8414634146,26139,-1.8292682927,6,-0.3658536585,-7952,34.5739130435,4,0.0173913043,20680,-100.8780487805
13893515,40322112.701416,22786,-13.9705702023,26368,16.1667688535,-13072,8.0147148988,158,-1625.0609756098,26651,-9.6341463415,1880,-114.6341463415,12305,-53.5,8,0.0347826087,8378,-40.8682926829
14417794,40338112.4267578,22786,-13.9705702023,26368,16.1667688535,-12064,7.3966891478,30,-1671.8902439024,27419,-1.8292682927,1880,-114.6341463415,8446,-36.7217391304,10,0.0434782609,8379,-40.8731707317
14024581,40838112.5183105,-19459,11.9307173513,-32512,-19.9337829552,-4272,2.6192519926,158,-1703.1097560976,27931,-9.6341463415,-1932,117.8048780488,20482,-89.052173913,5,0.0217391304,8385,-40.9024390244
14155656,40842112.6098633,7935,-4.8651134273,7680,4.7087676272,-400,0.2452483139,30,-1749.9390243902,28699,-1.8292682927,-1009,61.5243902439,4100,-17.8260869565,2,0.0086956522,16581,-80.8829268293
14417803,40850112.701416,7935,-4.8651134273,7680,4.7087676272,3248,-1.991416309,158,-1781.1585365854,29211,-9.6341463415,-1009,61.5243902439,4103,-17.8391304348,2,0.0086956522,-24377,118.912195122
14417803,40850112.701416,11776,-7.2201103617,27136,16.6376456162,-3120,1.9129368486,30,-1827.9878048781,29979,-1.8292682927,457,-27.8658536585,-7937,34.5086956522,3,0.0130434783,24766,-120.8097560976
13893517,41346112.7624512,11776,-7.2201103617,27136,16.6376456162,-3168,1.9423666462,158,-1859.2073170732,30491,-9.6341463415,457,-27.8658536585,2,-0.0086956522,4,0.0173913043,-24386,118.956097561
13893516,41858112.7319336,-7425,4.5524218271,-2305,-1.413243409,-2800,1.7167381974,30,-563.6585365854,9244,-1.8292682927,7,-0.4268292683,16386,-71.2434782609,2,0.0086956522,16578,-80.8682926829
13959053,41860112.7624512,-7425,4.5524218271,-2305,-1.413243409,-2768,1.6971183323,158,-594.8780487805,9756,-9.6341463415,7,-0.4268292683,4098,-17.8173913043,2,0.0086956522,-3903,19.0390243902
14024591,41862112.8234863,-8193,5.0232985898,-1025,-0.6284488044,-2752,1.6873083998,30,-641.7073170732,10524,-1.8292682927,12,-0.7317073171,2,-0.0086956522,1,0.0043478261,-12095,59
14417806,41874112.7929688,-8193,5.0232985898,-1025,-0.6284488044,-2864,1.7559779277,158,-672.9268292683,11036,-9.6341463415,12,-0.7317073171,-12287,53.4217391304,0,0,-16191,78.9804878049
13893517,42370112.7624512,-10497,6.435928878,-2817,-1.7271612508,-2912,1.7854077253,30,-719.756097561,11804,-1.8292682927,6,-0.3658536585,12290,-53.4347826087,0,0,-32575,158.9024390244
14286732,42382112.7319336,-13569,8.3194359289,-1793,-1.0993255671,-2864,1.7559779277,158,-750.9756097561,12316,-9.6341463415,13,-0.7926829268,2,-0.0086956522,-2,-0.0086956522,8385,-40.9024390244
14286732,42382112.7319336,-13569,8.3194359289,-1793,-1.0993255671,-2864,1.7559779277,30,-797.8048780488,13084,-1.8292682927,13,-0.7926829268,-24575,106.847826087,3,0.0130434783,28865,-140.8048780488
13893517,42882112.7624512,-14081,8.6333537707,-1793,-1.0993255671,-2992,1.8344573881,158,-829.0243902439,13596,-9.6341463415,4,-0.243902439,8194,-35.6260869565,-2,-0.0086956522,20673,-100.843902439
14221196,42892112.7319336,-15105,9.2611894543,0,0,-2880,1.7657878602,30,-875.8536585366,14364,-1.8292682927,10,-0.6097560976,4098,-17.8173913043,0,0,-12095,59
14286731,42894112.701416,-15105,9.2611894543,0,0,-2928,1.7952176579,158,-907.0731707317,14876,-9.6341463415,10,-0.6097560976,-4095,17.8043478261,0,0,28866,-140.8097560976
14417804,42898112.7319336,-15361,9.4181483752,-1,-0.0006131208,-2960,1.814837523,30,-953.9024390244,15644,-1.8292682927,8,-0.487804878,28674,-124.6695652174,-2,-0.0086956522,-20286,98.956097561
14548876,42902112.7319336,-15361,9.4181483752,-1,-0.0006131208,-2896,1.7755977928,158,-985.1219512195,16156,-9.6341463415,8,-0.487804878,-28670,124.652173913,-2,-0.0086956522,-24381,118.9317073171
14483339,43412112.701416,-11777,7.2207234825,1792,1.0987124464,-2880,1.7657878602,30,-1031.9512195122,16924,-1.8292682927,26,-1.5853658537,8195,-35.6304347826,1,0.0043478261,20676,-100.8585365854
14417804,43922112.7319336,-3841,2.3549969344,4352,2.6683016554,-2720,1.6676885346,158,-1063.1707317073,17436,-9.6341463415,16,-0.9756097561,16387,-71.247826087,-1,-0.0043478261,197,-0.9609756098
14286731,44430112.701416,-3841,2.3549969344,4352,2.6683016554,-2464,1.5107296137,30,-1110,18204,-1.8292682927,16,-0.9756097561,3,-0.0130434783,0,0,-28475,138.9024390244
14483338,44436112.6708984,7424,-4.5518087063,8960,5.4935622318,-2544,1.5597792765,158,-1141.2195121951,18716,-9.6341463415,-23,1.4024390244,3,-0.0130434783,0,0,16582,-80.887804878
14483339,44436112.701416,7424,-4.5518087063,8960,5.4935622318,-2272,1.3930104231,30,-1188.0487804878,19484,-1.8292682927,-23,1.4024390244,12291,-53.4391304348,3,0.0130434783,-7995,39
14155661,44938112.7624512,18432,-11.3010423053,6144,3.7670141018,-1536,0.9417535254,158,-1219.2682926829,19996,-9.6341463415,-151,9.2073170732,-28670,124.652173913,-1,-0.0043478261,4293,-20.9414634146
14221195,44940112.701416,25344,-15.5389331698,0,0,-1424,0.8730839975,30,-1266.0975609756,20764,-1.8292682927,2,-0.1219512195,28674,-124.6695652174,-1,-0.0043478261,12484,-60.8975609756
14286733,44942112.7624512,25344,-15.5389331698,0,0,-1776,1.0889025138,158,-1297.3170731707,21276,-9.6341463415,2,-0.1219512195,-24575,106.847826087,-1,-0.0043478261,-3902,19.0341463415
14417804,44946112.7319336,22016,-13.498467198,-10497,-6.435928878,-2176,1.3341508277,30,-1344.1463414634,22044,-1.8292682927,112,-6.8292682927,-24576,106.852173913,-2,-0.0086956522,-3903,19.0390243902
14352268,45456112.7319336,22016,-13.498467198,-10497,-6.435928878,-2800,1.7167381974,158,-1375.3658536585,22556,-9.6341463415,112,-6.8292682927,-12288,53.4260869565,-2,-0.0086956522,16576,-80.8585365854
14614412,45464112.7319336,9216,-5.6505211527,-19713,-12.0864500307,-3056,1.8736971183,30,-1422.1951219512,23324,-1.8292682927,95,-5.7926829268,24576,-106.852173913,-1,-0.0043478261,192,-0.9365853659
14286731,45966112.701416,-257,0.1575720417,-21761,-13.3421213979,-3312,2.0306560392,158,-1453.4146341463,23836,-9.6341463415,53,-3.2317073171,4096,-17.8086956522,0,0,-12097,59.0097560976
14352267,45968112.701416,-257,0.1575720417,-21761,-13.3421213979,-3536,2.167995095,30,-1500.243902439,24604,-1.8292682927,53,-3.2317073171,20480,-89.0434782609,0,0,-12096,59.0048780488
14548875,45974112.701416,-1537,0.9423666462,-19201,-11.7725321888,-3632,2.2268546904,158,-1531.4634146342,25116,-9.6341463415,19,-1.1585365854,-24576,106.852173913,-1,-0.0043478261,20672,-100.8390243902
14614410,45976112.6708984,-1025,0.6284488044,-6145,-3.7676272226,-3600,2.2072348253,30,-1578.2926829268,25884,-1.8292682927,20,-1.2195121951,0,0,1,0.0043478261,-32577,158.912195122
14417804,46482112.7319336,-1025,0.6284488044,-6145,-3.7676272226,-3600,2.2072348253,158,-1609.512195122,26396,-9.6341463415,20,-1.2195121951,-7937,34.5086956522,-1,-0.0043478261,-3906,19.0536585366
14417804,46482112.7319336,-8449,5.1802575107,3328,2.0404659718,-3360,2.0600858369,30,-1656.3414634146,27164,-1.8292682927,-54,3.2926829268,12288,-53.4260869565,1,0.0043478261,16575,-80.8536585366
14352267,46992112.701416,-8449,5.1802575107,3328,2.0404659718,-3008,1.8442673207,158,-1687.5609756098,27676,-9.6341463415,-54,3.2926829268,16384,-71.2347826087,-1,-0.0043478261,-3906,19.0536585366
14221197,47500112.7624512,-13057,8.0055180871,2304,1.4126302882,-2656,1.6284488044,30,-1734.3902439024,28444,-1.8292682927,-23,1.4024390244,-16129,70.1260869565,-1,-0.0043478261,20670,-100.8292682927
14614411,47512112.701416,-17921,10.9877375843,256,0.1569589209,-2640,1.6186388719,158,-1765.6097560976,28956,-9.6341463415,100,-6.0975609756,-16130,70.1304347826,2,0.0086956522,-32578,158.9170731707
14286733,48014112.7624512,-17921,10.9877375843,256,0.1569589209,-3056,1.8736971183,30,-1812.4390243902,29724,-1.8292682927,100,-6.0975609756,4351,-18.9173913043,-1,-0.0043478261,4287,-20.912195122
14286732,48526112.7319336,-28417,17.4230533415,-1537,-0.9423666462,-3088,1.8933169834,158,-1843.6585365854,30236,-9.6341463415,44,-2.6829268293,12543,-54.5347826087,2,0.0086956522,8383,-40.8926829268
14090126,49032112.7929688,-28417,17.4230533415,-1537,-0.9423666462,-2992,1.8344573881,30,-1890.4878048781,31004,-1.8292682927,44,-2.6829268293,16639,-72.3434782609,1,0.0043478261,20672,-100.8390243902
14286730,49038112.6708984,30463,-18.6774984672,-5633,-3.4537093807,-3104,1.903126916,158,-1921.7073170732,31516,-9.6341463415,-3,0.1829268293,24831,-107.9608695652,1,0.0043478261,-24384,118.9463414634
14352267,49040112.701416,27135,-16.6370324954,-7937,-4.8663396689,-3168,1.9423666462,30,-1968.5365853659,32284,-1.8292682927,-1,0.0609756098,8447,-36.7260869565,1,0.0043478261,24769,-120.8243902439
13959054,49540112.7929688,27135,-16.6370324954,-7937,-4.8663396689,-3040,1.8638871858,158,1996.3414634146,-32740,-9.6341463415,-1,0.0609756098,-7937,34.5086956522,0,0,24770,-120.8292682927
14417804,49554112.7319336,27135,-16.6370324954,-3585,-2.1980380135,-3248,1.991416309,30,1949.512195122,-31972,-1.8292682927,26,-1.5853658537,8192,-35.6173913043,1,0.0043478261,28867,-140.8146341463
14286731,50062112.701416,31999,-19.6192519926,-513,-0.3145309626,-3424,2.0993255671,158,1918.2926829268,-31460,-9.6341463415,-30,1.8292682927,-32768,142.4695652174,1,0.0043478261,20676,-100.8585365854
14286731,50062112.701416,31999,-19.6192519926,-513,-0.3145309626,-3376,2.0698957695,30,1871.4634146342,-30692,-1.8292682927,-30,1.8292682927,-16383,71.2304347826,0,0,-3901,19.0292682927
14286733,50062112.7624512,-26881,16.4812998161,6144,3.7670141018,-3168,1.9423666462,158,1840.243902439,-30180,-9.6341463415,7,-0.4268292683,16385,-71.2391304348,-1,-0.0043478261,-7997,39.0097560976
14352268,50064112.7319336,-26881,16.4812998161,6144,3.7670141018,-3184,1.9521765788,30,1793.4146341463,-29412,-1.8292682927,7,-0.4268292683,-4096,17.8086956522,0,0,-16189,78.9707317073
14286731,50574112.701416,-19969,12.2434089516,11776,7.2201103617,-3792,2.3249540159,158,1762.1951219512,-28900,-9.6341463415,30,-1.8292682927,16385,-71.2391304348,2,0.0086956522,28869,-140.8243902439
14090123,51080112.701416,-20225,12.4003678725,1792,1.0987124464,-4176,2.5603923973,30,1715.3658536585,-28132,-1.8292682927,-419,25.5487804878,-8192,35.6173913043,-1,-0.0043478261,20679,-100.8731707317
14352267,51088112.701416,-20225,12.4003678725,1792,1.0987124464,-3264,2.0012262416,158,1684.1463414634,-27620,-9.6341463415,-419,25.5487804878,24577,-106.8565217391,0,0,-32567,158.8634146341
14221198,51596112.7929688,-9985,6.1220110362,-4353,-2.6689147762,-1952,1.1968117719,30,1637.3170731707,-26852,-1.8292682927,-564,34.3902439024,4097,-17.8130434783,0,0,-28468,138.8682926829
14090127,52104112.8234863,-9985,6.1220110362,-4353,-2.6689147762,-1232,0.7553648069,158,1606.0975609756,-26340,-9.6341463415,-564,34.3902439024,16384,-71.2347826087,1,0.0043478261,16594,-80.9463414634
14155662,52106112.7929688,16896,-10.3592887799,-7681,-4.709380748,-896,0.5493562232,30,1559.2682926829,-25572,-1.8292682927,-369,22.5,20480,-89.0434782609,-5,-0.0217391304,24792,-120.9365853659
14614413,52120112.7624512,-7168,4.3948497854,-21505,-13.185162477,-960,0.5885959534,158,1528.0487804878,-25060,-9.6341463415,-238,14.512195122,-24575,106.847826087,-4,-0.0173913043,12509,-61.0195121951
14352271,52624112.8234863,-7168,4.3948497854,-21505,-13.185162477,-592,0.3629675046,30,1481.2195121951,-24292,-1.8292682927,-238,14.512195122,-32767,142.4652173913,-5,-0.0217391304,28897,-140.9609756098
14483343,52628112.8234863,-3327,2.039852851,25087,15.3813611281,-480,0.2942979767,158,1450,-23780,-9.6341463415,-150,9.1463414634,-4096,17.8086956522,-7,-0.0304347826,-32542,158.7414634146
14745487,52636112.8234863,-3327,2.039852851,25087,15.3813611281,-768,0.4708767627,30,1403.1707317073,-23012,-1.8292682927,-150,9.1463414634,16385,-71.2391304348,-4,-0.0173913043,-16160,78.8292682927
14352273,53136112.8845215,3843,-2.356223176,26367,16.1661557327,-800,0.4904966278,158,1371.9512195122,-22500,-9.6341463415,-27,1.6463414634,-24321,105.7434782609,-6,-0.0260869565,223,-1.087804878
14221203,53644112.9455566,-253,0.1551195586,-27393,-16.7952176579,-1072,0.6572654813,30,1325.1219512195,-21732,-1.8292682927,-8,0.487804878,4350,-18.9130434783,-5,-0.0217391304,-20259,98.8243902439
14876559,53664112.8234863,-253,0.1551195586,-27393,-16.7952176579,-1024,0.6278356836,158,1293.9024390244,-21220,-9.6341463415,-8,0.487804878,20732,-90.1391304348,-3,-0.0130434783,-12071,58.8829268293
14548881,54166112.8845215,-8700,5.3341508277,-17409,-10.6738197425,-944,0.5787860208,30,1247.0731707317,-20452,-1.8292682927,-45,2.743902439,24824,-107.9304347826,-6,-0.0260869565,-12074,58.8975609756
15335311,54190112.8234863,-31483,19.3028816677,-11265,-6.9068056407,-1216,0.7455548743,158,1215.8536585366,-19940,-9.6341463415,1,-0.0609756098,4340,-18.8695652174,-6,-0.0260869565,28884,-140.8975609756
15204242,54698112.9150391,-31483,19.3028816677,-11265,-6.9068056407,-624,0.3825873697,30,1169.0243902439,-19172,-1.8292682927,1,-0.0609756098,16624,-72.2782608696,-8,-0.0347826087,-16175,78.9024390244
15400847,54704112.8234863,-2555,1.5665236052,-16385,-10.0459840589,-112,0.0686695279,158,1137.8048780488,-18660,-9.6341463415,160,-9.756097561,28908,-125.6869565217,-8,-0.0347826087,4305,-21
15794061,54716112.7624512,-2555,1.5665236052,-16385,-10.0459840589,-1168,0.7161250766,30,1090.9756097561,-17892,-1.8292682927,160,-9.756097561,-7960,34.6086956522,-6,-0.0260869565,12497,-60.9609756098
15597453,55222112.7624512,22790,-13.9730226855,26879,16.4800735745,-1552,0.951563458,158,1059.756097561,-17380,-9.6341463415,139,-8.4756097561,20711,-90.047826087,-8,-0.0347826087,-24368,118.8682926829
15990668,55234112.7319336,29190,-17.8969957082,-2562,-1.5708154506,-896,0.5493562232,30,1012.9268292683,-16612,-1.8292682927,-23,1.4024390244,24804,-107.8434782609,-8,-0.0347826087,4306,-21.0048780488
16383883,55246112.701416,29190,-17.8969957082,-2562,-1.5708154506,160,-0.0980993256,158,981.7073170732,-16100,-9.6341463415,-23,1.4024390244,8417,-36.5956521739,-9,-0.0391304348,212,-1.0341463415
16580489,55252112.6403809,-5882,3.6063764562,-16386,-10.0465971796,-768,0.4708767627,30,934.8780487805,-15332,-1.8292682927,189,-11.5243902439,4318,-18.7739130435,-9,-0.0391304348,-12078,58.9170731707
135,55258120.3918457,-5882,3.6063764562,-16386,-10.0465971796,-2112,1.2949110975,158,903.6585365854,-14820,-9.6341463415,189,-11.5243902439,8413,-36.5782608696,-12,-0.052173913,28880,-140.8780487805
131207,55262120.3918457,-3066,1.8798283262,-31234,-19.1502145923,-1200,0.7357449418,30,856.8292682927,-14052,-1.8292682927,-178,10.8536585366,4314,-18.7565217391,-12,-0.052173913,-28461,138.8341463415
393351,55270120.3918457,30471,-18.6824034335,-30978,-18.9932556714,496,-0.3041079093,158,825.6097560976,-13540,-9.6341463415,190,-11.5853658537,24787,-107.7695652174,-13,-0.0565217391,-32557,158.8146341463
131207,55774120.3918457,30471,-18.6824034335,-30978,-18.9932556714,-32,0.0196198651,30,778.7804878049,-12772,-1.8292682927,190,-11.5853658537,20688,-89.947826087,-13,-0.0565217391,24785,-120.9024390244
589954,55788120.2392578,-24313,14.9068056407,30462,18.6768853464,-1936,1.1870018394,158,747.5609756098,-12260,-9.6341463415,310,-18.9024390244,28880,-125.5652173913,-14,-0.0608695652,-16177,78.912195122
983168,55800120.1782227,-24313,14.9068056407,30462,18.6768853464,-1616,0.9908031882,30,700.7317073171,-11492,-1.8292682927,310,-18.9024390244,12491,-54.3086956522,-11,-0.047826087,16591,-80.9317073171
917628,56310120.0561523,-14841,9.0993255671,32254,19.7755977928,-432,0.264868179,158,669.512195122,-10980,-9.6341463415,101,-6.1585365854,-7996,34.7652173913,-12,-0.052173913,-24371,118.8829268293
983164,56312120.0561523,-22265,13.6511342735,23550,14.4389944819,-864,0.5297363581,30,622.6829268293,-10212,-1.8292682927,265,-16.1585365854,-20285,88.1956521739,-15,-0.0652173913,-12086,58.956097561
1441912,56326119.934082,-22265,13.6511342735,23550,14.4389944819,-2224,1.3635806254,158,591.4634146341,-9700,-9.6341463415,265,-16.1585365854,-28474,123.8,-14,-0.0608695652,16585,-80.9024390244
1441912,56326119.934082,15879,-9.7357449418,11262,6.9049662784,-2752,1.6873083998,30,544.6341463415,-8932,-1.8292682927,-55,3.3536585366,16580,-72.0869565217,-17,-0.0739130435,-24375,118.9024390244
1835123,56338119.7814941,-28410,17.418761496,13310,8.1606376456,-1824,1.1183323115,158,513.4146341463,-8420,-9.6341463415,-154,9.3902439024,-24386,106.0260869565,-15,-0.0652173913,24777,-120.8634146341
1638515,56844119.7814941,-28410,17.418761496,13310,8.1606376456,-1104,0.6768853464,30,466.5853658537,-7652,-1.8292682927,-154,9.3902439024,-16195,70.4130434783,-18,-0.0782608696,4298,-20.9658536585
1900655,56852119.6594238,-5627,3.450030656,-1283,-0.7866339669,-1296,0.7946045371,158,435.3658536585,-7140,-9.6341463415,36,-2.1951219512,12480,-54.2608695652,-20,-0.0869565217,-7988,38.9658536585
1900654,57364119.6289063,-5627,3.450030656,-1283,-0.7866339669,-2432,1.4911097486,30,388.5365853659,-6372,-1.8292682927,36,-2.1951219512,-3904,16.9739130435,-20,-0.0869565217,16592,-80.9365853659
2228331,57374119.5373535,-25851,15.8497854077,-10755,-6.5941140405,-2848,1.7461679951,158,357.3170731707,-5860,-9.6341463415,-156,9.512195122,-3907,16.9869565217,-22,-0.0956521739,-24366,118.8585365854
2293865,57376119.4763184,7429,-4.5548743102,7422,4.5505824647,-2224,1.3635806254,30,310.487804878,-5092,-1.8292682927,-467,28.4756097561,-20294,88.2347826087,-22,-0.0956521739,-20269,98.8731707317
2359399,57378119.4152832,7429,-4.5548743102,7422,4.5505824647,-1664,1.0202329859,158,279.2682926829,-4580,-9.6341463415,-467,28.4756097561,24765,-107.6739130435,-22,-0.0956521739,-3885,18.9512195122
2293864,57888119.4458008,-7676,4.7063151441,27902,17.1072961373,-1952,1.1968117719,30,232.4390243902,-3812,-1.8292682927,-592,36.0975609756,-16193,70.4043478261,-25,-0.1086956522,-32554,158.8
2359398,57890119.3847656,-7676,4.7063151441,27902,17.1072961373,-1968,1.2066217045,158,201.2195121951,-3300,-9.6341463415,-592,36.0975609756,-28481,123.8304347826,-23,-0.1,20696,-100.956097561
2424932,57892119.3237305,-24060,14.7516860822,-12802,-7.8491722869,-496,0.3041079093,30,154.3902439024,-2532,-1.8292682927,-824,50.243902439,-32579,141.647826087,-26,-0.1130434783,24792,-120.9365853659
2752610,57902119.2626953,19972,-12.2452483139,11519,7.06253832,464,-0.2844880441,158,123.1707317073,-2020,-9.6341463415,-715,43.5975609756,-12101,52.6130434783,-28,-0.1217391304,-12072,58.887804878
2424931,58404119.2932129,19972,-12.2452483139,11519,7.06253832,928,-0.5689760883,30,76.3414634146,-1252,-1.8292682927,-715,43.5975609756,188,-0.8173913043,-29,-0.1260869565,-7974,38.8975609756
2752608,58414119.2016602,-11261,6.9043531576,-6146,-3.7682403433,1104,-0.6768853464,158,45.1219512195,-740,-9.6341463415,-502,30.6097560976,12477,-54.247826087,-27,-0.1173913043,-16165,78.8536585366
2556000,58920119.2016602,14339,-8.7915389332,-19458,-11.9301042305,2032,-1.2458614347,30,-1.7682926829,29,-1.8292682927,208,-12.6829268293,16573,-72.0565217391,-28,-0.1217391304,16606,-81.0048780488
2621533,58922119.1101074,14339,-8.7915389332,-19458,-11.9301042305,2512,-1.5401594114,158,-32.987804878,541,-9.6341463415,208,-12.6829268293,189,-0.8217391304,-30,-0.1304347826,4321,-21.0780487805
2949213,58932119.1101074,-8702,5.3353770693,16638,10.2011036174,1680,-1.0300429185,30,-79.8170731707,1309,-1.8292682927,902,-55,28861,-125.4826086957,-31,-0.1347826087,20707,-101.0097560976
2883675,59442119.0490723,-8702,5.3353770693,16638,10.2011036174,-16,0.0098099326,158,-111.0365853659,1821,-9.6341463415,902,-55,191,-0.8304347826,-32,-0.1391304348,-28446,138.7609756098
2752601,59950118.9880371,30722,-18.8362967505,11006,6.7480073574,-752,0.4610668302,30,-157.8658536585,2589,-1.8292682927,707,-43.1097560976,28863,-125.4913043478,-30,-0.1304347826,24800,-120.9756097561
2818135,59952118.927002,9474,-5.8087063151,-18946,-11.6161863887,-832,0.5101164929,158,-189.0853658537,3101,-9.6341463415,310,-18.9024390244,28863,-125.4913043478,-33,-0.1434782609,-7971,38.8829268293
3080275,59960118.8049316,9474,-5.8087063151,-18946,-11.6161863887,-1072,0.6572654813,30,-235.9146341463,3869,-1.8292682927,310,-18.9024390244,-24385,106.0217391304,-31,-0.1347826087,-32548,158.7707317073
3080274,60472118.7744141,-18175,11.1434702636,24319,14.9104843654,-1120,0.686695279,158,-267.1341463415,4381,-9.6341463415,20,-1.2195121951,4288,-18.6434782609,-32,-0.1391304348,24795,-120.9512195122
3211346,60476118.7744141,-18175,11.1434702636,24319,14.9104843654,-688,0.4218270999,30,-313.9634146341,5149,-1.8292682927,20,-1.2195121951,28863,-125.4913043478,-33,-0.1434782609,-16167,78.8634146341
2883666,60978118.7744141,-4608,2.8252605763,2048,1.2556713673,-1520,0.9319435929,158,-345.1829268293,5661,-9.6341463415,59,-3.5975609756,-24386,106.0260869565,-31,-0.1347826087,16598,-80.9658536585
3080273,60984118.7438965,-5121,3.1397915389,-17152,-10.5162477008,-2736,1.6774984672,30,-392.012195122,6429,-1.8292682927,-596,36.3414634146,8383,-36.447826087,-30,-0.1304347826,8402,-40.9853658537
2883664,61490118.7133789,-5121,3.1397915389,-17152,-10.5162477008,-1520,0.9319435929,158,-423.2317073171,6941,-9.6341463415,-596,36.3414634146,8382,-36.4434782609,-32,-0.1391304348,20686,-100.9073170732
2818130,62000118.7744141,-22786,13.9705702023,31745,19.4635193133,-416,0.2550582465,30,-470.0609756098,7709,-1.8292682927,-1085,66.1585365854,4284,-18.6260869565,-30,-0.1304347826,16589,-80.9219512195
2752594,62510118.7744141,-22786,13.9705702023,31745,19.4635193133,752,-0.4610668302,158,-501.2804878049,8221,-9.6341463415,-1085,66.1585365854,-28485,123.847826087,-34,-0.147826087,-3891,18.9804878049
2883670,62514118.8964844,18941,-11.6131207848,24065,14.7547516861,2400,-1.4714898835,30,-548.1097560976,8989,-1.8292682927,-998,60.8536585366,-8007,34.8130434783,-31,-0.1347826087,-12084,58.9463414634
2883671,62514118.927002,10748,-6.589822195,14337,8.7903126916,2576,-1.5793991416,158,-579.3292682927,9501,-9.6341463415,-265,16.1585365854,20664,-89.8434782609,-31,-0.1347826087,16585,-80.9024390244
3014745,62518118.9880371,10748,-6.589822195,14337,8.7903126916,2336,-1.4322501533,30,-626.1585365854,10269,-1.8292682927,-265,16.1585365854,-24393,106.0565217391,-29,-0.1260869565,-24377,118.912195122
2687067,63020119.0490723,-13574,8.3225015328,1281,0.7854077253,2208,-1.3537706928,158,-657.3780487805,10781,-9.6341463415,15,-0.9146341463,12470,-54.2173913043,-28,-0.1217391304,198,-0.9658536585
2621535,63530119.1711426,23545,-14.435928878,-18176,-11.1440833844,1536,-0.9417535254,30,-704.2073170732,11549,-1.8292682927,1,-0.0609756098,20658,-89.8173913043,-30,-0.1304347826,-3902,19.0341463415
2752608,63534119.2016602,23545,-14.435928878,-18176,-11.1440833844,1440,-0.8828939301,158,-735.4268292683,12061,-9.6341463415,1,-0.0609756098,20655,-89.8043478261,-31,-0.1347826087,-16190,78.9756097561
2752610,63534119.2626953,-3081,1.889025138,24064,14.7541385653,1440,-0.8828939301,30,-782.256097561,12829,-1.8292682927,91,-5.5487804878,-20307,88.2913043478,-26,-0.1130434783,4293,-20.9414634146
2490470,64038119.3847656,-3081,1.889025138,24064,14.7541385653,1584,-0.9711833231,158,-813.4756097561,13341,-9.6341463415,91,-5.5487804878,-28502,123.9217391304,-27,-0.1173913043,16581,-80.8829268293
2293867,64544119.5373535,-12042,7.3832004905,24320,14.9110974862,1440,-0.8828939301,30,-860.3048780488,14109,-1.8292682927,288,-17.5609756098,-8023,34.8826086957,-27,-0.1173913043,24774,-120.8487804878
2424940,64548119.5678711,-5643,3.4598405886,25856,15.8528510116,448,-0.2746781116,158,-891.5243902439,14621,-9.6341463415,239,-14.5731707317,-3924,17.0608695652,-25,-0.1086956522,-16186,78.956097561
2228336,65054119.6899414,-5643,3.4598405886,25856,15.8528510116,48,-0.0294297977,30,-938.3536585366,15389,-1.8292682927,239,-14.5731707317,4269,-18.5608695652,-26,-0.1130434783,-7994,38.9951219512
2097268,65562119.8120117,17141,-10.5095033722,26880,16.4806866953,368,-0.2256284488,158,-969.5731707317,15901,-9.6341463415,-15,0.9146341463,24748,-107.6,-25,-0.1086956522,-28474,138.8975609756
1900666,66068119.9951172,17141,-10.5095033722,26880,16.4806866953,384,-0.2354383814,30,-1016.4024390244,16669,-1.8292682927,-15,0.9146341463,8368,-36.3826086957,-24,-0.1043478261,8392,-40.9365853659
1704059,66574120.0256348,-19212,11.7792765175,25856,15.8528510116,384,-0.2354383814,158,-1047.6219512195,17181,-9.6341463415,69,-4.2073170732,28851,-125.4391304348,-22,-0.0956521739,20681,-100.8829268293
1376383,67076120.1477051,31732,-19.4555487431,-26880,-16.4806866953,128,-0.0784794605,30,-1094.4512195122,17949,-1.8292682927,199,-12.1341463415,-16204,70.452173913,-24,-0.1043478261,24778,-120.8682926829
1114243,67580120.2697754,31732,-19.4555487431,-26880,-16.4806866953,-400,0.2452483139,158,-1125.6707317073,18461,-9.6341463415,199,-12.1341463415,-32585,141.6739130435,-22,-0.0956521739,-7988,38.9658536585
1114245,67580120.3308105,25844,-15.8454935622,-18688,-11.4580012262,-128,0.0784794605,30,-1172.5,19229,-1.8292682927,155,-9.4512195122,-32583,141.6652173913,-19,-0.0826086957,-3891,18.9804878049
589960,68076120.4223633,25844,-15.8454935622,-18688,-11.4580012262,656,-0.4022072348,158,-1203.7195121951,19741,-9.6341463415,155,-9.4512195122,-32582,141.6608695652,-20,-0.0869565217,-3891,18.9804878049
262284,68578120.5444336,28148,-17.2581238504,-12544,-7.6909871245,448,-0.2746781116,30,-1250.5487804878,20509,-1.8292682927,272,-16.5853658537,8383,-36.447826087,-19,-0.0826086957,12493,-60.9414634146
262286,68578120.6054688,32500,-19.9264255058,-8704,-5.3366033109,320,-0.1961986511,158,-1281.7682926829,21021,-9.6341463415,244,-14.8780487805,196,-0.852173913,-19,-0.0826086957,28876,-140.8585365854
16711568,69080112.8540039,32500,-19.9264255058,-8704,-5.3366033109,880,-0.5395462906,30,-1328.5975609756,21789,-1.8292682927,244,-14.8780487805,-12088,52.5565217391,-17,-0.0739130435,-20277,98.912195122
16646032,69590112.8540039,-25612,15.7032495402,3585,2.1980380135,976,-0.598405886,158,-1359.8170731707,22301,-9.6341463415,449,-27.3780487805,28877,-125.552173913,-15,-0.0652173913,20685,-100.9024390244
16252817,70090112.8845215,-11020,6.7565910484,4609,2.8258736971,496,-0.3041079093,30,-1406.6463414634,23069,-1.8292682927,587,-35.7926829268,4306,-18.7217391304,-15,-0.0652173913,-12083,58.9414634146
15794067,70588112.9455566,-11020,6.7565910484,4609,2.8258736971,576,-0.353157572,158,-1437.8658536585,23581,-9.6341463415,587,-35.7926829268,-16170,70.3043478261,-11,-0.047826087,-24371,118.8829268293
15335314,71086112.9150391,-1548,0.9491109749,-1792,-1.0987124464,384,-0.2354383814,30,-1484.6951219512,24349,-1.8292682927,643,-39.2073170732,-32548,141.5130434783,-8,-0.0347826087,-24369,118.8731707317
15269778,71596112.9150391,-1548,0.9491109749,-1792,-1.0987124464,-400,0.2452483139,158,-1515.9146341463,24861,-9.6341463415,643,-39.2073170732,-3871,16.8304347826,-8,-0.0347826087,-24368,118.8682926829
14614420,72088112.9760742,23541,-14.4334763948,-5632,-3.45309626,-608,0.3727774372,30,-1562.743902439,25629,-1.8292682927,597,-36.4024390244,231,-1.0043478261,-4,-0.0173913043,-32559,158.8243902439
14352274,72592112.9150391,-11531,7.0698957695,-8192,-5.022685469,-576,0.353157572,158,-1593.9634146342,26141,-9.6341463415,486,-29.6341463415,28906,-125.6782608696,-2,-0.0086956522,24787,-120.912195122
13762448,73086112.8540039,-11531,7.0698957695,-8192,-5.022685469,-704,0.4316370325,30,-1640.7926829268,26909,-1.8292682927,486,-29.6341463415,-16146,70.2,-3,-0.0130434783,-32556,158.8097560976
13631375,73594112.8234863,21494,-13.1784181484,-6144,-3.7670141018,-832,0.5101164929,158,-1672.012195122,27421,-9.6341463415,325,-19.8170731707,-3853,16.752173913,-1,-0.0043478261,-3882,18.9365853659
13238156,74094112.7319336,21494,-13.1784181484,-6144,-3.7670141018,-848,0.5199264255,30,-1718.8414634146,28189,-1.8292682927,325,-19.8170731707,-24328,105.7739130435,1,0.0043478261,28887,-140.912195122
13172621,74604112.7624512,-2058,1.2618025751,-8704,-5.3366033109,-672,0.4120171674,158,-1750.0609756098,28701,-9.6341463415,298,-18.1707317073,20733,-90.1434782609,3,0.0130434783,-24360,118.8292682927
12582795,75098112.701416,-24841,15.2305334151,-4608,-2.8252605763,-864,0.5297363581,30,-1796.8902439024,29469,-1.8292682927,408,-24.8780487805,20482,-89.052173913,3,0.0130434783,-24359,118.8243902439
12713867,75102112.701416,-24841,15.2305334151,-4608,-2.8252605763,-832,0.5101164929,158,-1828.1097560976,29981,-9.6341463415,408,-24.8780487805,-12282,53.4,4,0.0173913043,-3879,18.9219512195
12451718,75606112.5488281,20472,-12.5518087063,1,0.0006131208,-784,0.4806866953,30,-1874.9390243902,30749,-1.8292682927,503,-30.6707317073,12298,-53.4695652174,4,0.0173913043,-3878,18.9170731707
12517252,75608112.487793,20472,-12.5518087063,1,0.0006131208,-1184,0.7259350092,158,-1906.1585365854,31261,-9.6341463415,503,-30.6707317073,28685,-124.7173913043,9,0.0391304348,-24358,118.8195121951
11927425,76102112.3962402,-12808,7.8528510116,10241,6.2789699571,-1680,1.0300429185,30,-1952.9878048781,32029,-1.8292682927,598,-36.4634146341,-8176,35.547826087,8,0.0347826087,-12068,58.8682926829
11796352,76610112.3657227,24313,-14.9068056407,5121,3.1397915389,-1504,0.9221336603,158,-1984.2073170732,32541,-9.6341463415,475,-28.9634146341,-32748,142.3826086957,10,0.0434782609,28894,-140.9463414634
11534204,77114112.2436523,24313,-14.9068056407,5121,3.1397915389,-1616,0.9908031882,30,1965.0609756098,-32227,-1.8292682927,475,-28.9634146341,-20457,88.9434782609,9,0.0391304348,223,-1.087804878
11730810,77120112.1826172,-2823,1.7308399755,5377,3.2967504598,-2384,1.461679951,158,1933.8414634146,-31715,-9.6341463415,513,-31.2804878049,27,-0.1173913043,9,0.0391304348,20703,-100.9902439024
11534198,77626112.0605469,-32262,19.780502759,1281,0.7854077253,-2848,1.7461679951,30,1887.012195122,-30947,-1.8292682927,229,-13.9634146341,30,-0.1304347826,11,0.047826087,225,-1.0975609756
11206517,78128112.0300293,-32262,19.780502759,1281,0.7854077253,-2480,1.5205395463,158,1855.7926829268,-30435,-9.6341463415,229,-13.9634146341,12319,-53.5608695652,13,0.0565217391,24803,-120.9902439024
11075442,78636111.9384766,4603,-2.8221949724,-4096,-2.5113427345,-2096,1.2851011649,30,1808.9634146342,-29667,-1.8292682927,106,-6.4634146341,-32735,142.3260869565,9,0.0391304348,16612,-81.0341463415
10878836,79142111.9995117,4603,-2.8221949724,-4096,-2.5113427345,-1920,1.1771919068,158,1777.743902439,-29155,-9.6341463415,106,-6.4634146341,-4060,17.652173913,11,0.047826087,-28444,138.7512195122
10551153,79644111.907959,-20741,12.7167381974,-10496,-6.4353157572,-1872,1.1477621091,30,1730.9146341463,-28387,-1.8292682927,227,-13.8414634146,-32729,142.3,13,0.0565217391,-12059,58.8243902439
10616687,79646111.8469238,22012,-13.4960147149,-13824,-8.475781729,-2320,1.4224402207,158,1699.6951219512,-27875,-9.6341463415,305,-18.5975609756,-12249,53.2565217391,14,0.0608695652,-16153,78.7951219512
10420078,80152111.8164063,22012,-13.4960147149,-13824,-8.475781729,-2640,1.6186388719,30,1652.8658536585,-27107,-1.8292682927,305,-18.5975609756,8234,-35.8,12,0.052173913,-3865,18.8536585366
10682218,80160111.6943359,-8708,5.339055794,-23552,-14.4402207235,-2816,1.72654813,158,1621.6463414634,-26595,-9.6341463415,276,-16.8292682927,-12244,53.2347826087,13,0.0565217391,-20248,98.7707317073
10354539,80662111.7248535,-8708,5.339055794,-23552,-14.4402207235,-3040,1.8638871858,30,1574.8170731707,-25827,-1.8292682927,276,-16.8292682927,8238,-35.8173913043,12,0.052173913,234,-1.1414634146
10616681,80670111.6638184,31485,-19.3041079093,-23040,-14.1263028817,-3200,1.9619865113,158,1543.5975609756,-25315,-9.6341463415,225,-13.7195121951,47,-0.2043478261,12,0.052173913,28906,-141.0048780488
10813286,80676111.5722656,6398,-3.9227467811,-24576,-15.0680564071,-3408,2.0895156346,30,1496.7682926829,-24547,-1.8292682927,131,-7.987804878,12336,-53.6347826087,11,0.047826087,-20245,98.756097561
10485606,81178111.5722656,6398,-3.9227467811,-24576,-15.0680564071,-3600,2.2072348253,158,1465.5487804878,-24035,-9.6341463415,131,-7.987804878,49,-0.2130434783,12,0.052173913,238,-1.1609756098
10420070,81688111.5722656,-11522,7.0643776824,-22272,-13.6554261189,-3344,2.0502759044,30,1418.7195121951,-23267,-1.8292682927,-29,1.7682926829,-8143,35.4043478261,11,0.047826087,-28433,138.6975609756
10616677,81694111.541748,-27905,17.1091354997,-20992,-12.8706315144,-2928,1.7952176579,158,1387.5,-22755,-9.6341463415,-142,8.6585365854,-32718,142.252173913,12,0.052173913,-24335,118.7073170732
10223461,82194111.541748,-27905,17.1091354997,-20992,-12.8706315144,-2912,1.7854077253,30,1340.6707317073,-21987,-1.8292682927,-142,8.6585365854,50,-0.2173913043,11,0.047826087,12532,-61.1317073171
10223460,82706111.5112305,29184,-17.8933169834,-25344,-15.5389331698,-2736,1.6774984672,158,1309.4512195122,-21475,-9.6341463415,-349,21.2804878049,20529,-89.2565217391,13,0.0565217391,24821,-121.0780487805
10026856,83212111.6333008,29184,-17.8933169834,-25344,-15.5389331698,-2032,1.2458614347,30,1262.6219512195,-20707,-1.8292682927,-349,21.2804878049,-20431,88.8304347826,12,0.052173913,-28425,138.6585365854
9961321,83722111.6638184,28417,-17.4230533415,26624,16.3237277744,-848,0.5199264255,158,1231.4024390244,-20195,-9.6341463415,-546,33.2926829268,49,-0.2130434783,13,0.0565217391,-28425,138.6585365854
10223464,83730111.6333008,28674,-17.5806253832,512,0.3139178418,-160,0.0980993256,30,1184.5731707317,-19427,-1.8292682927,-355,21.6463414634,-4049,17.6043478261,10,0.0434782609,-20235,98.7073170732
10289002,83732111.6943359,28674,-17.5806253832,512,0.3139178418,-176,0.1079092581,158,1153.3536585366,-18915,-9.6341463415,-355,21.6463414634,16431,-71.4391304348,9,0.0391304348,-3854,18.8
10420074,83736111.6943359,21251,-13.0294297977,-22785,-13.9699570815,-240,0.1471489884,30,1106.5243902439,-18147,-1.8292682927,-167,10.1829268293,8237,-35.8130434783,9,0.0391304348,241,-1.1756097561
10551151,83740111.8469238,21251,-13.0294297977,-22785,-13.9699570815,-432,0.264868179,158,1075.3048780488,-17635,-9.6341463415,-167,10.1829268293,28714,-124.8434782609,8,0.0347826087,12528,-61.112195122
10485615,84250111.8469238,11524,-7.065603924,-29441,-18.0508890251,-560,0.3433476395,30,1028.4756097561,-16867,-1.8292682927,-61,3.7195121951,40,-0.1739130435,10,0.0434782609,-24339,118.7268292683
10485618,84250111.9384766,-3836,2.3519313305,-26625,-16.3243408952,-912,0.5591661557,158,997.256097561,-16355,-9.6341463415,-6,0.3658536585,4133,-17.9695652174,8,0.0347826087,-16151,78.7853658537
10551153,84252111.907959,-3836,2.3519313305,-26625,-16.3243408952,-1344,0.8240343348,30,950.4268292683,-15587,-1.8292682927,-6,0.3658536585,-4063,17.6652173913,7,0.0304347826,230,-1.1219512195
10813299,84260111.9689941,-22779,13.9662783568,22527,13.8117719191,-656,0.4022072348,158,919.2073170732,-15075,-9.6341463415,-289,17.6219512195,31,-0.1347826087,8,0.0347826087,-3871,18.8829268293
10944374,84264112.0605469,-22779,13.9662783568,22527,13.8117719191,-240,0.1471489884,30,872.3780487805,-14307,-1.8292682927,-289,17.6219512195,4125,-17.9347826087,9,0.0391304348,-32543,158.7463414634
10747770,84770112.1826172,14086,-8.6364193746,25855,15.8522378909,-1104,0.6768853464,158,841.1585365854,-13795,-9.6341463415,-171,10.4268292683,-24550,106.7391304348,7,0.0304347826,20703,-100.9902439024
10944380,84776112.2436523,-9210,5.646842428,15615,9.5738810546,-1536,0.9417535254,30,794.3292682927,-13027,-1.8292682927,-406,24.756097561,24599,-106.952173913,5,0.0217391304,221,-1.0780487805
11337600,84788112.3657227,-9210,5.646842428,15615,9.5738810546,-624,0.3825873697,158,763.1097560976,-12515,-9.6341463415,-406,24.756097561,-28654,124.5826086957,7,0.0304347826,-7976,38.9073170732
11140993,85294112.3962402,19975,-12.2470876763,15359,9.4169221337,-64,0.0392397302,30,716.2804878049,-11747,-1.8292682927,-466,28.4146341463,-12273,53.3608695652,1,0.0043478261,-12076,58.9073170732
11927427,85318112.4572754,-17657,10.8258736971,15871,9.7308399755,-768,0.4708767627,158,685.0609756098,-11235,-9.6341463415,-364,22.1951219512,24590,-106.9130434783,1,0.0043478261,12496,-60.956097561
11730823,85824112.5793457,-17657,10.8258736971,15871,9.7308399755,-1120,0.686695279,30,638.2317073171,-10467,-1.8292682927,-364,22.1951219512,-16373,71.1869565217,1,0.0043478261,-16177,78.912195122
11992971,85832112.701416,4104,-2.5162477008,17663,10.8295524218,-400,0.2452483139,158,607.012195122,-9955,-9.6341463415,-484,29.512195122,-32762,142.4434782609,2,0.0086956522,4300,-20.9756097561
11992972,85832112.7319336,4104,-2.5162477008,17663,10.8295524218,224,-0.1373390558,30,560.1829268293,-9187,-1.8292682927,-484,29.512195122,16386,-71.2434782609,-1,-0.0043478261,12486,-60.9073170732
12648334,85852112.7929688,-2809,1.7222562845,22527,13.8117719191,-528,0.3237277744,158,528.9634146341,-8675,-9.6341463415,-159,9.6951219512,24576,-106.852173913,-3,-0.0130434783,-20285,98.9512195122
12844942,85858112.7929688,-17913,10.982832618,-514,-0.3151440834,-1056,0.6474555487,30,482.1341463415,-7907,-1.8292682927,-404,24.6341463415,-16129,70.1260869565,-5,-0.0217391304,8384,-40.8975609756
13107087,85866112.8234863,-17913,10.982832618,-514,-0.3151440834,-800,0.4904966278,158,450.9146341463,-7395,-9.6341463415,-404,24.6341463415,-16132,70.1391304348,-2,-0.0086956522,8384,-40.8975609756
13369234,85874112.9150391,29703,-18.2115266708,-8194,-5.0239117106,448,-0.2746781116,30,404.0853658537,-6627,-1.8292682927,-543,33.1097560976,-3847,16.7260869565,-5,-0.0217391304,16577,-80.8634146341
13434774,85876113.0371094,29703,-18.2115266708,-8194,-5.0239117106,304,-0.1863887186,158,372.8658536585,-6115,-9.6341463415,-543,33.1097560976,-24329,105.7782608696,-7,-0.0304347826,-3903,19.0390243902
13696916,85884112.9760742,15879,-9.7357449418,-13314,-8.1630901288,-752,0.4610668302,30,326.0365853659,-5347,-1.8292682927,-499,30.4268292683,-7945,34.5434782609,-11,-0.047826087,8386,-40.9073170732
14221205,85900113.0065918,7175,-4.3991416309,-9218,-5.6517473942,-64,0.0392397302,158,294.8170731707,-4835,-9.6341463415,-792,48.2926829268,-28426,123.5913043478,-12,-0.052173913,-28480,138.9268292683
14221208,85900113.0981445,7175,-4.3991416309,-9218,-5.6517473942,992,-0.6082158185,30,247.987804878,-4067,-1.8292682927,-792,48.2926829268,-12046,52.3739130435,-13,-0.0565217391,12481,-60.8829268293
14286746,85902113.1591797,9479,-5.8117719191,-3586,-2.1986511343,880,-0.5395462906,158,216.7682926829,-3555,-9.6341463415,-572,34.8780487805,-20241,88.0043478261,-11,-0.047826087,24770,-120.8292682927
14548889,85910113.1286621,14855,-9.1079092581,1535,0.9411404047,544,-0.3335377069,30,169.9390243902,-2787,-1.8292682927,-513,31.2804878049,-20243,88.0130434783,-17,-0.0739130435,4292,-20.9365853659
15269784,85932113.0981445,14855,-9.1079092581,1535,0.9411404047,640,-0.3923973023,158,138.7195121951,-2275,-9.6341463415,-513,31.2804878049,-3863,16.7956521739,-17,-0.0739130435,-20284,98.9463414634
15335321,85934113.1286621,22023,-13.5027590435,25087,15.3813611281,1136,-0.6965052115,30,91.8902439024,-1507,-1.8292682927,-331,20.1829268293,8423,-36.6217391304,-19,-0.0826086957,195,-0.9512195122
15663001,85944113.1286621,22023,-13.5027590435,25087,15.3813611281,1232,-0.7553648069,158,60.6707317073,-995,-9.6341463415,-331,20.1829268293,-28445,123.6739130435,-21,-0.0913043478,-12092,58.9853658537
15794074,85948113.1591797,27655,-16.9558553035,-28161,-17.2660944206,16,-0.0098099326,30,13.8414634146,-227,-1.8292682927,-118,7.1951219512,-32546,141.5043478261,-19,-0.0826086957,198,-0.9658536585
15794073,86460113.1286621,24327,-14.9153893317,30975,18.991416309,-240,0.1471489884,158,-17.4390243902,286,-9.6341463415,-397,24.2073170732,16602,-72.1826086957,-21,-0.0913043478,-32569,158.8731707317
16252825,86474113.1286621,24327,-14.9153893317,30975,18.991416309,448,-0.2746781116,30,-64.2682926829,1054,-1.8292682927,-397,24.2073170732,20696,-89.9826086957,-25,-0.1086956522,20679,-100.8731707317
16383893,86478113.0065918,20231,-12.4040465972,-28929,-17.7369711833,352,-0.2158185162,158,-95.487804878,1566,-9.6341463415,-226,13.7804878049,-7978,34.6869565217,-23,-0.1,20677,-100.8634146341
16514964,86482112.9760742,20231,-12.4040465972,-28929,-17.7369711833,-384,0.2354383814,30,-142.3170731707,2334,-1.8292682927,-226,13.7804878049,211,-0.9173913043,-24,-0.1043478261,12489,-60.9219512195
327826,86500120.7275391,23047,-14.1305947272,9471,5.8068669528,576,-0.353157572,158,-173.5365853659,2846,-9.6341463415,-708,43.1707317073,20684,-89.9304347826,-28,-0.1217391304,-20282,98.9365853659
393363,86502120.7580566,4615,-2.8295524218,-6146,-3.7682403433,2832,-1.7363580625,30,-220.3658536585,3614,-1.8292682927,-433,26.4024390244,-16183,70.3608695652,-30,-0.1304347826,-28472,138.887804878
721040,86512120.6665039,4615,-2.8295524218,-6146,-3.7682403433,2048,-1.2556713673,158,-251.5853658537,4126,-9.6341463415,-433,26.4024390244,-24370,105.9565217391,-31,-0.1347826087,24779,-120.8731707317
721040,86512120.6665039,20487,-12.5610055181,29951,18.3635806254,688,-0.4218270999,30,-298.4146341463,4894,-1.8292682927,88,-5.3658536585,-28463,123.752173913,-31,-0.1347826087,-16179,78.9219512195
786575,86514120.6359863,20487,-12.5610055181,29951,18.3635806254,2080,-1.2752912324,158,-329.6341463415,5406,-9.6341463415,88,-5.3658536585,203,-0.8826086957,-30,-0.1304347826,12491,-60.9317073171
1310859,86530120.513916,24583,-15.0723482526,14592,8.9466584917,3072,-1.8835070509,30,-376.4634146341,6174,-1.8292682927,453,-27.6219512195,24775,-107.7173913043,-29,-0.1260869565,-24375,118.9024390244
1310856,87042120.4223633,775,-0.4751686082,7936,4.8657265481,1360,-0.8338442673,158,-407.6829268293,6686,-9.6341463415,532,-32.4390243902,8393,-36.4913043478,-31,-0.1347826087,4299,-20.9707317073
1572996,87050120.300293,775,-0.4751686082,7936,4.8657265481,-432,0.264868179,30,-454.512195122,7454,-1.8292682927,532,-32.4390243902,203,-0.8826086957,-28,-0.1217391304,-7985,38.9512195122
1638530,87052120.2392578,-3322,2.0367872471,-3841,-2.3549969344,672,-0.4120171674,158,-485.7317073171,7966,-9.6341463415,79,-4.8170731707,-7995,34.7608695652,-31,-0.1347826087,-3888,18.9658536585
2097279,87066120.1477051,-15610,9.5708154506,6912,4.2378908645,2752,-1.6873083998,30,-532.5609756098,8734,-1.8292682927,486,-29.6341463415,-32576,141.6347826087,-28,-0.1217391304,-12084,58.9463414634
2031738,87576119.9951172,-15610,9.5708154506,6912,4.2378908645,2768,-1.6971183323,158,-563.7804878049,9246,-9.6341463415,486,-29.6341463415,-24387,106.0304347826,-28,-0.1217391304,-7987,38.9609756098
2097274,87578119.9951172,25350,-15.5426118945,-18945,-11.6155732679,624,-0.3825873697,30,-610.6097560976,10014,-1.8292682927,531,-32.3780487805,-32577,141.6391304348,-28,-0.1217391304,4306,-21.0048780488
2424950,87588119.8730469,25350,-15.5426118945,-18945,-11.6155732679,-560,0.3433476395,158,-641.8292682927,10526,-9.6341463415,531,-32.3780487805,-24380,106,-28,-0.1217391304,4309,-21.0195121951
2293877,88096119.8425293,1542,-0.9454322502,24063,14.7535254445,832,-0.5101164929,30,-688.6585365854,11294,-1.8292682927,191,-11.6463414634,-7998,34.7739130435,-28,-0.1217391304,8407,-41.0097560976
2490481,88102119.720459,-3323,2.0374003679,31999,19.6192519926,592,-0.3629675046,158,-719.8780487805,11806,-9.6341463415,440,-26.8292682927,-32577,141.6391304348,-28,-0.1217391304,-24361,118.8341463415
2359405,88610119.5983887,-3323,2.0374003679,31999,19.6192519926,-896,0.5493562232,30,-766.7073170732,12574,-1.8292682927,440,-26.8292682927,-20292,88.2260869565,-26,-0.1130434783,-20262,98.8390243902
2228333,89118119.5983887,-22523,13.8093194359,8959,5.492949111,-1488,0.9123237278,158,-797.9268292683,13086,-9.6341463415,-93,5.6707317073,12476,-54.2434782609,-29,-0.1260869565,8410,-41.0243902439
2687079,89132119.4152832,-22523,13.8093194359,8959,5.492949111,-80,0.0490496628,30,-844.756097561,13854,-1.8292682927,-93,5.6707317073,4285,-18.6304347826,-28,-0.1217391304,20695,-100.9512195122
2752615,89134119.4152832,18949,-11.6180257511,14335,8.78908645,-480,0.2942979767,158,-875.9756097561,14366,-9.6341463415,197,-12.012195122,16572,-72.052173913,-29,-0.1260869565,-3885,18.9512195122
2752612,89646119.3237305,-20476,12.5542611895,-30721,-18.8356836297,-1168,0.7161250766,30,-922.8048780488,15134,-1.8292682927,-68,4.1463414634,4284,-18.6260869565,-30,-0.1304347826,-16173,78.8926829268
2621539,90154119.2932129,-20476,12.5542611895,-30721,-18.8356836297,128,-0.0784794605,158,-954.0243902439,15646,-9.6341463415,-68,4.1463414634,-16197,70.4217391304,-30,-0.1304347826,-7981,38.9317073171
2621537,90666119.2321777,-6141,3.7651747394,17664,10.8301655426,640,-0.3923973023,30,-1000.8536585366,16414,-1.8292682927,-262,15.9756097561,-16197,70.4217391304,-30,-0.1304347826,8403,-40.9902439024
2752607,90670119.1711426,-6141,3.7651747394,17664,10.8301655426,256,-0.1569589209,158,-1032.0731707317,16926,-9.6341463415,-262,15.9756097561,28861,-125.4826086957,-29,-0.1260869565,-7981,38.9317073171
2818141,90672119.1101074,11011,-6.7510729614,30976,18.9920294298,848,-0.5199264255,30,-1078.9024390244,17694,-1.8292682927,-582,35.487804878,24764,-107.6695652174,-31,-0.1347826087,20694,-100.9463414634
2752603,91182119.0490723,18434,-11.3022685469,6144,3.7670141018,2448,-1.5009196812,158,-1110.1219512195,18206,-9.6341463415,-608,37.0731707317,28860,-125.4782608696,-31,-0.1347826087,8408,-41.0146341463
2883677,91186119.1101074,18434,-11.3022685469,6144,3.7670141018,3552,-2.1778050276,30,-1156.9512195122,18974,-1.8292682927,-608,37.0731707317,20670,-89.8695652174,-29,-0.1260869565,-24360,118.8292682927
2752603,91694119.0490723,25089,-15.3825873697,-5377,-3.2967504598,2928,-1.7952176579,158,-1188.1707317073,19486,-9.6341463415,-51,3.1097560976,24768,-107.6869565217,-31,-0.1347826087,24793,-120.9414634146
2949209,91700118.9880371,-23040,14.1263028817,-10753,-6.5928877989,2112,-1.2949110975,30,-1235,20254,-1.8292682927,-72,4.3902439024,-16191,70.3956521739,-31,-0.1347826087,-3879,18.9219512195
3014748,91702119.0795898,-23040,14.1263028817,-10753,-6.5928877989,2048,-1.2556713673,158,-1266.2195121951,20766,-9.6341463415,-72,4.3902439024,12482,-54.2695652174,-32,-0.1391304348,-16167,78.8634146341
3014745,92214118.9880371,-7681,4.709380748,256,0.1569589209,1840,-1.128142244,30,-1313.0487804878,21534,-1.8292682927,-117,7.1341463415,24770,-107.6956521739,-32,-0.1391304348,16599,-80.9707317073
2752602,92718119.0185547,-7681,4.709380748,256,0.1569589209,1120,-0.686695279,158,-1344.2682926829,22046,-9.6341463415,-117,7.1341463415,-12095,52.5869565217,-31,-0.1347826087,-12076,58.9073170732
2752603,92718119.0490723,6399,-3.9233599019,15872,9.7314530963,544,-0.3335377069,30,-1391.0975609756,22814,-1.8292682927,-233,14.2073170732,20673,-89.8826086957,-32,-0.1391304348,28881,-140.8829268293
2883674,92722119.0185547,-2307,1.4144696505,-26624,-16.3237277744,1360,-0.8338442673,158,-1422.3170731707,23326,-9.6341463415,-104,6.3414634146,-8002,34.7913043478,-31,-0.1347826087,-32564,158.8487804878
2883675,92722119.0490723,-2307,1.4144696505,-26624,-16.3237277744,944,-0.5787860208,30,-1469.1463414634,24094,-1.8292682927,-104,6.3414634146,8381,-36.4391304348,-30,-0.1304347826,-12089,58.9707317073
2687070,93228119.140625,-23300,14.2857142857,-3072,-1.8835070509,224,-0.1373390558,158,-1500.3658536585,24606,-9.6341463415,94,-5.7317073171,-28485,123.847826087,-29,-0.1260869565,24771,-120.8341463415
3080286,93240119.140625,-23300,14.2857142857,-3072,-1.8835070509,160,-0.0980993256,30,-1547.1951219512,25374,-1.8292682927,94,-5.7317073171,-12107,52.6391304348,-28,-0.1217391304,-24384,118.9463414634
2818143,93744119.1711426,23547,-14.4371551196,31233,19.1496014715,128,-0.0784794605,158,-1578.4146341463,25886,-9.6341463415,-29,1.7682926829,28848,-125.4260869565,-27,-0.1173913043,-12102,59.0341463415
2687074,94252119.2626953,-32519,19.9380748007,32001,19.6204782342,272,-0.1667688535,30,-1625.243902439,26654,-1.8292682927,-345,21.0365853659,-32595,141.7173913043,-29,-0.1260869565,182,-0.887804878
2490468,94758119.3237305,-32519,19.9380748007,32001,19.6204782342,1248,-0.7651747394,158,-1656.4634146342,27166,-9.6341463415,-345,21.0365853659,24746,-107.5913043478,-30,-0.1304347826,20661,-100.7853658537
2556007,94760119.4152832,-29193,17.8988350705,-16384,-10.0453709381,1744,-1.0692826487,30,-1703.2926829268,27934,-1.8292682927,-224,13.6585365854,-3930,17.0869565217,-27,-0.1173913043,16568,-80.8195121951
2424938,95268119.5068359,-16395,10.0521152667,-2305,-1.413243409,1392,-0.8534641324,158,-1734.512195122,28446,-9.6341463415,9,-0.5487804878,-20316,88.3304347826,-27,-0.1173913043,28859,-140.7756097561
2490479,95270119.6594238,-16395,10.0521152667,-2305,-1.413243409,512,-0.3139178418,30,-1781.3414634146,29214,-1.8292682927,9,-0.5487804878,-24412,106.1391304348,-27,-0.1173913043,-20291,98.9804878049
2097266,95770119.7509766,18164,-11.136725935,-31489,-19.3065603924,608,-0.3727774372,158,-1812.5609756098,29726,-9.6341463415,-59,3.5975609756,28836,-125.3739130435,-26,-0.1130434783,-8001,39.0292682927
2097273,95770119.9645996,18164,-11.136725935,-31489,-19.3065603924,1120,-0.686695279,30,-1859.3902439024,30494,-1.8292682927,-59,3.5975609756,-20315,88.3260869565,-26,-0.1130434783,-32572,158.887804878
1704059,96270120.0256348,25075,-15.3740036787,23551,14.4396076027,512,-0.3139178418,158,-1890.6097560976,31006,-9.6341463415,135,-8.2317073171,16553,-71.9695652174,-25,-0.1086956522,-16184,78.9463414634
1638528,96780120.1782227,1267,-0.7768240343,15103,9.2599632128,272,-0.1667688535,30,-1937.4390243902,31774,-1.8292682927,227,-13.8414634146,173,-0.752173913,-26,-0.1130434783,-20275,98.9024390244
1441924,97286120.300293,1267,-0.7768240343,15103,9.2599632128,544,-0.3335377069,158,-1968.6585365854,32286,-9.6341463415,227,-13.8414634146,-8016,34.852173913,-25,-0.1086956522,211,-1.0292682927
1048714,97786120.4833984,19443,-11.9209074188,14335,8.78908645,1424,-0.8730839975,30,1980.6097560976,-32482,-1.8292682927,293,-17.8658536585,-12108,52.6434782609,-23,-0.1,-3882,18.9365853659
655500,98286120.5444336,19443,-11.9209074188,14335,8.78908645,1456,-0.8927038627,158,1949.3902439024,-31970,-9.6341463415,293,-17.8658536585,186,-0.8086956522,-22,-0.0956521739,-28456,138.8097560976
196753,98784120.6970215,-14349,8.797670141,-13057,-8.0055180871,1216,-0.7455548743,30,1902.5609756098,-31202,-1.8292682927,502,-30.6097560976,-24385,106.0217391304,-24,-0.1043478261,28888,-140.9170731707
262287,98786120.6359863,30452,-18.6707541386,-28160,-17.2654812998,736,-0.4512568976,158,1871.3414634146,-30690,-9.6341463415,557,-33.9634146341,-20283,88.1869565217,-21,-0.0913043478,4311,-21.0292682927
16646034,99286112.9150391,30452,-18.6707541386,-28160,-17.2654812998,720,-0.4414469651,30,1824.512195122,-29922,-1.8292682927,557,-33.9634146341,8395,-36.5,-19,-0.0826086957,-28458,138.8195121951
16711570,99288112.9150391,15605,-9.5677498467,-1792,-1.0987124464,1072,-0.6572654813,158,1793.2926829268,-29410,-9.6341463415,403,-24.5731707317,28881,-125.5695652174,-16,-0.0695652174,-20267,98.8634146341
16121749,99782113.0065918,15605,-9.5677498467,-1792,-1.0987124464,880,-0.5395462906,30,1746.4634146342,-28642,-1.8292682927,403,-24.5731707317,-32554,141.5391304348,-14,-0.0608695652,-3885,18.9512195122
15794070,100284113.037109,-2315,1.4193746168,19713,12.0864500307,816,-0.5003065604,158,1715.243902439,-28130,-9.6341463415,384,-23.4146341463,219,-0.952173913,-11,-0.047826087,-32556,158.8097560976
15335319,100782113.067627,29942,-18.3580625383,22785,13.9699570815,896,-0.5493562232,30,1668.4146341463,-27362,-1.8292682927,337,-20.5487804878,-20257,88.0739130435,-13,-0.0565217391,24788,-120.9170731707
14876568,101280113.098145,29942,-18.3580625383,22785,13.9699570815,880,-0.5395462906,158,1637.1951219512,-26850,-9.6341463415,337,-20.5487804878,16613,-72.2304347826,-10,-0.0434782609,8403,-40.9902439024
14483352,101780113.098145,-5386,3.3022685469,19457,11.9294911097,864,-0.5297363581,30,1590.3658536585,-26082,-1.8292682927,450,-27.4390243902,233,-1.0130434783,-11,-0.047826087,4307,-21.0097560976
14811030,101790113.037109,26871,-16.4751686082,7425,4.5524218271,560,-0.3433476395,158,1559.1463414634,-25570,-9.6341463415,473,-28.8414634146,-12052,52.4,-8,-0.0347826087,4307,-21.0097560976
