Shimmer,Shimmer,Shimmer,Shimmer,Shimmer,Shimmer,Shimmer,Shimmer,Shimmer,Shimmer,Shimmer,Shimmer,Shimmer,Shimmer,Shimmer,Shimmer,Shimmer,Shimmer,Shimmer,Shimmer
Timestamp,Timestamp,Wide Range Accelerometer X,Wide Range Accelerometer X,Wide Range Accelerometer Y,Wide Range Accelerometer Y,Wide Range Accelerometer Z,Wide Range Accelerometer Z,Gyroscope X,Gyroscope X,Gyroscope Y,Gyroscope Y,Gyroscope Z,Gyroscope Z,Magnetometer X,Magnetometer X,Magnetometer Y,Magnetometer Y,Magnetometer Z,Magnetometer Z
RAW,CAL,RAW,CAL,RAW,CAL,RAW,CAL,RAW,CAL,RAW,CAL,RAW,CAL,RAW,CAL,RAW,CAL,RAW,CAL
no units,mSecs,no units,m/(sec^2),no units,m/(sec^2),no units,m/(sec^2),no units,deg/sec,no units,deg/sec,no units,deg/sec,no units,local,no units,local,no units,local
9701837,4804.6875,-3328,2.0404659718,384,0.2354383814,-15680,9.6137339056,27,2.6219512195,-43,-1.6463414634,0,0,2,-0.0086956522,-41,-0.1782608696,138,-0.6731707317
9702477,4824.21875,-3456,2.1189454323,352,0.2158185162,-15696,9.6235438381,9,2.743902439,-45,-0.5487804878,-3,0.1829268293,3,-0.0130434783,-43,-0.1869565217,140,-0.6829268293
9703117,4843.75,-3424,2.0993255671,288,0.176578786,-15744,9.6529736358,-31,2.8048780488,-46,1.8902439024,-6,0.3658536585,2,-0.0086956522,-42,-0.1826086957,140,-0.6829268293
9703757,4863.28125,-3296,2.0208461067,288,0.176578786,-15744,9.6529736358,-31,2.8048780488,-46,1.8902439024,-6,0.3658536585,0,0,-44,-0.1913043478,139,-0.6780487805
9704397,4882.8125,-3168,1.9423666462,320,0.1961986511,-15744,9.6529736358,-13,2.8048780488,-46,0.7926829268,-3,0.1829268293,1,-0.0043478261,-40,-0.1739130435,138,-0.6731707317
9705037,4902.34375,-3248,1.991416309,272,0.1667688535,-15696,9.6235438381,-13,2.8048780488,-46,0.7926829268,-3,0.1829268293,4,-0.0173913043,-47,-0.2043478261,141,-0.687804878
9705677,4921.875,-3216,1.9717964439,304,0.1863887186,-15728,9.6431637032,-13,2.987804878,-49,0.7926829268,-4,0.243902439,4,-0.0173913043,-44,-0.1913043478,138,-0.6731707317
9706317,4941.40625,-3152,1.9325567137,304,0.1863887186,-15664,9.603923973,-10,2.743902439,-45,0.6097560976,-3,0.1829268293,3,-0.0130434783,-44,-0.1913043478,140,-0.6829268293
9706957,4960.9375,-3088,1.8933169834,336,0.2060085837,-15744,9.6529736358,-10,2.743902439,-45,0.6097560976,-3,0.1829268293,3,-0.0130434783,-42,-0.1826086957,139,-0.6780487805
9707597,4980.46875,-3264,2.0012262416,240,0.1471489884,-15712,9.6333537707,1,2.6829268293,-44,-0.0609756098,-5,0.3048780488,2,-0.0086956522,-43,-0.1869565217,138,-0.6731707317
9708237,5000,-3152,1.9325567137,224,0.1373390558,-15808,9.692213366,1,2.6829268293,-44,-0.0609756098,-5,0.3048780488,4,-0.0173913043,-44,-0.1913043478,140,-0.6829268293
9708877,5019.53125,-3120,1.9129368486,240,0.1471489884,-15808,9.692213366,-8,2.987804878,-49,0.487804878,-11,0.6707317073,2,-0.0086956522,-41,-0.1782608696,139,-0.6780487805
9709517,5039.0625,-3152,1.9325567137,208,0.1275291232,-15776,9.6725935009,1,3.0487804878,-50,-0.0609756098,-12,0.7317073171,3,-0.0130434783,-47,-0.2043478261,141,-0.687804878
9710157,5058.59375,-3184,1.9521765788,256,0.1569589209,-15712,9.6333537707,1,3.0487804878,-50,-0.0609756098,-12,0.7317073171,3,-0.0130434783,-46,-0.2,140,-0.6829268293
9710797,5078.125,-3200,1.9619865113,400,0.2452483139,-15728,9.6431637032,-10,3.0487804878,-50,0.6097560976,-22,1.3414634146,2,-0.0086956522,-46,-0.2,140,-0.6829268293
9711437,5097.65625,-3184,1.9521765788,400,0.2452483139,-15760,9.6627835684,-16,2.9268292683,-48,0.9756097561,-19,1.1585365854,5,-0.0217391304,-47,-0.2043478261,141,-0.687804878
9712077,5117.1875,-3184,1.9521765788,320,0.1961986511,-15632,9.5843041079,-16,2.9268292683,-48,0.9756097561,-19,1.1585365854,3,-0.0130434783,-42,-0.1826086957,141,-0.687804878
9712717,5136.71875,-3248,1.991416309,304,0.1863887186,-15648,9.5941140405,-7,3.2317073171,-53,0.4268292683,-23,1.4024390244,3,-0.0130434783,-44,-0.1913043478,139,-0.6780487805
9713357,5156.25,-3216,1.9717964439,352,0.2158185162,-15664,9.603923973,-7,3.2317073171,-53,0.4268292683,-23,1.4024390244,4,-0.0173913043,-48,-0.2086956522,141,-0.687804878
9713997,5175.78125,-3216,1.9717964439,352,0.2158185162,-15616,9.5744941754,14,2.987804878,-49,-0.8536585366,-18,1.0975609756,2,-0.0086956522,-40,-0.1739130435,137,-0.6682926829
9714637,5195.3125,-3344,2.0502759044,416,0.2550582465,-15568,9.5450643777,-1,2.6219512195,-43,0.0609756098,-23,1.4024390244,3,-0.0130434783,-43,-0.1869565217,138,-0.6731707317
9715277,5214.84375,-3328,2.0404659718,368,0.2256284488,-15680,9.6137339056,-1,2.6219512195,-43,0.0609756098,-23,1.4024390244,0,0,-42,-0.1826086957,138,-0.6731707317
9715917,5234.375,-3136,1.9227467811,336,0.2060085837,-15728,9.6431637032,-23,2.256097561,-37,1.4024390244,-13,0.7926829268,2,-0.0086956522,-44,-0.1913043478,141,-0.687804878
9716557,5253.90625,-3088,1.8933169834,352,0.2158185162,-15792,9.6824034335,-23,2.256097561,-37,1.4024390244,-13,0.7926829268,-1,0.0043478261,-42,-0.1826086957,141,-0.687804878
9717197,5273.4375,-3136,1.9227467811,336,0.2060085837,-15856,9.7216431637,-15,2.012195122,-33,0.9146341463,-8,0.487804878,1,-0.0043478261,-42,-0.1826086957,139,-0.6780487805
9717837,5292.96875,-3088,1.8933169834,352,0.2158185162,-15888,9.7412630288,-34,2.6829268293,-44,2.0731707317,-16,0.9756097561,2,-0.0086956522,-42,-0.1826086957,139,-0.6780487805
9718477,5312.5,-2960,1.814837523,304,0.1863887186,-15808,9.692213366,-34,2.6829268293,-44,2.0731707317,-16,0.9756097561,2,-0.0086956522,-45,-0.1956521739,142,-0.6926829268
9719117,5332.03125,-2928,1.7952176579,272,0.1667688535,-15776,9.6725935009,-30,3.2926829268,-54,1.8292682927,-27,1.6463414634,2,-0.0086956522,-43,-0.1869565217,138,-0.6731707317
9719757,5351.5625,-2976,1.8246474555,176,0.1079092581,-15744,9.6529736358,-30,3.2926829268,-54,1.8292682927,-27,1.6463414634,2,-0.0086956522,-45,-0.1956521739,140,-0.6829268293
9720397,5371.09375,-2992,1.8344573881,192,0.1177191907,-15792,9.6824034335,-9,3.4756097561,-57,0.5487804878,-39,2.3780487805,0,0,-40,-0.1739130435,139,-0.6780487805
9721037,5390.625,-3104,1.903126916,240,0.1471489884,-15712,9.6333537707,-21,3.4756097561,-57,1.2804878049,-40,2.4390243902,2,-0.0086956522,-42,-0.1826086957,139,-0.6780487805
9721677,5410.15625,-3136,1.9227467811,192,0.1177191907,-15696,9.6235438381,-21,3.4756097561,-57,1.2804878049,-40,2.4390243902,1,-0.0043478261,-42,-0.1826086957,140,-0.6829268293
9722317,5429.6875,-3120,1.9129368486,160,0.0980993256,-15712,9.6333537707,-19,3.4756097561,-57,1.1585365854,-31,1.8902439024,4,-0.0173913043,-46,-0.2,140,-0.6829268293
9722957,5449.21875,-3152,1.9325567137,176,0.1079092581,-15760,9.6627835684,-3,3.2317073171,-53,0.1829268293,-34,2.0731707317,1,-0.0043478261,-40,-0.1739130435,141,-0.687804878
9723597,5468.75,-3232,1.9816063765,272,0.1667688535,-15648,9.5941140405,-3,3.2317073171,-53,0.1829268293,-34,2.0731707317,2,-0.0086956522,-43,-0.1869565217,141,-0.687804878
9724237,5488.28125,-3296,2.0208461067,240,0.1471489884,-15616,9.5744941754,-12,2.9268292683,-48,0.7317073171,-26,1.5853658537,2,-0.0086956522,-41,-0.1782608696,141,-0.687804878
9724877,5507.8125,-3232,1.9816063765,192,0.1177191907,-15584,9.5548743102,-12,2.9268292683,-48,0.7317073171,-26,1.5853658537,4,-0.0173913043,-47,-0.2043478261,142,-0.6926829268
9725517,5527.34375,-3312,2.0306560392,320,0.1961986511,-15648,9.5941140405,-13,2.6829268293,-44,0.7926829268,-20,1.2195121951,1,-0.0043478261,-39,-0.1695652174,139,-0.6780487805
9726157,5546.875,-3296,2.0208461067,384,0.2354383814,-15376,9.427345187,-25,2.4390243902,-40,1.5243902439,-11,0.6707317073,1,-0.0043478261,-40,-0.1739130435,140,-0.6829268293
9726797,5566.40625,-3232,1.9816063765,352,0.2158185162,-15584,9.5548743102,-25,2.4390243902,-40,1.5243902439,-11,0.6707317073,3,-0.0130434783,-40,-0.1739130435,138,-0.6731707317
9727437,5585.9375,-3152,1.9325567137,304,0.1863887186,-15616,9.5744941754,10,1.7682926829,-29,-0.6097560976,-6,0.3658536585,3,-0.0130434783,-38,-0.1652173913,140,-0.6829268293
9728077,5605.46875,-3152,1.9325567137,256,0.1569589209,-15696,9.6235438381,10,1.7682926829,-29,-0.6097560976,-6,0.3658536585,1,-0.0043478261,-43,-0.1869565217,139,-0.6780487805
9728717,5625,-3120,1.9129368486,208,0.1275291232,-15744,9.6529736358,7,1.5853658537,-26,-0.4268292683,2,-0.1219512195,0,0,-42,-0.1826086957,138,-0.6731707317
9729357,5644.53125,-3152,1.9325567137,176,0.1079092581,-15792,9.6824034335,6,1.4634146341,-24,-0.3658536585,4,-0.243902439,3,-0.0130434783,-42,-0.1826086957,138,-0.6731707317
9729997,5664.0625,-3152,1.9325567137,96,0.0588595953,-15760,9.6627835684,6,1.4634146341,-24,-0.3658536585,4,-0.243902439,1,-0.0043478261,-40,-0.1739130435,139,-0.6780487805
9730637,5683.59375,-3072,1.8835070509,96,0.0588595953,-15840,9.7118332311,-15,1.4634146341,-24,0.9146341463,4,-0.243902439,-1,0.0043478261,-40,-0.1739130435,139,-0.6780487805
9731277,5703.125,-2976,1.8246474555,80,0.0490496628,-15792,9.6824034335,10,1.9512195122,-32,-0.6097560976,1,-0.0609756098,3,-0.0130434783,-46,-0.2,140,-0.6829268293
9731917,5722.65625,-3072,1.8835070509,128,0.0784794605,-15808,9.692213366,10,1.9512195122,-32,-0.6097560976,1,-0.0609756098,1,-0.0043478261,-47,-0.2043478261,140,-0.6829268293
9732557,5742.1875,-3136,1.9227467811,128,0.0784794605,-15824,9.7020232986,-9,2.3780487805,-39,0.5487804878,-6,0.3658536585,1,-0.0043478261,-41,-0.1782608696,140,-0.6829268293
9733197,5761.71875,-3088,1.8933169834,112,0.0686695279,-15824,9.7020232986,-9,2.3780487805,-39,0.5487804878,-6,0.3658536585,1,-0.0043478261,-41,-0.1782608696,138,-0.6731707317
9733837,5781.25,-3104,1.903126916,176,0.1079092581,-15840,9.7118332311,-32,2.5,-41,1.9512195122,-6,0.3658536585,2,-0.0086956522,-37,-0.1608695652,138,-0.6731707317
9734477,5800.78125,-3104,1.903126916,176,0.1079092581,-15856,9.7216431637,-23,2.5,-41,1.4024390244,-7,0.4268292683,0,0,-40,-0.1739130435,140,-0.6829268293
9735117,5820.3125,-3008,1.8442673207,176,0.1079092581,-15776,9.6725935009,-23,2.5,-41,1.4024390244,-7,0.4268292683,1,-0.0043478261,-42,-0.1826086957,140,-0.6829268293
9735757,5839.84375,-2960,1.814837523,96,0.0588595953,-15776,9.6725935009,3,2.1341463415,-35,-0.1829268293,-1,0.0609756098,1,-0.0043478261,-38,-0.1652173913,139,-0.6780487805
9736397,5859.375,-3040,1.8638871858,144,0.088289393,-15920,9.7608828939,3,2.1341463415,-35,-0.1829268293,-1,0.0609756098,2,-0.0086956522,-40,-0.1739130435,139,-0.6780487805
9737037,5878.90625,-3088,1.8933169834,112,0.0686695279,-15936,9.7706928265,8,2.5,-41,-0.487804878,1,-0.0609756098,0,0,-40,-0.1739130435,140,-0.6829268293
9737677,5898.4375,-3088,1.8933169834,80,0.0490496628,-15920,9.7608828939,-7,2.8658536585,-47,0.4268292683,0,0,3,-0.0130434783,-42,-0.1826086957,140,-0.6829268293
9738317,5917.96875,-3152,1.9325567137,32,0.0196198651,-15936,9.7706928265,-7,2.8658536585,-47,0.4268292683,0,0,4,-0.0173913043,-45,-0.1956521739,142,-0.6926829268
9738957,5937.5,-3008,1.8442673207,80,0.0490496628,-15888,9.7412630288,-31,3.6585365854,-60,1.8902439024,-12,0.7317073171,2,-0.0086956522,-44,-0.1913043478,140,-0.6829268293
9739597,5957.03125,-2976,1.8246474555,64,0.0392397302,-15872,9.7314530963,-31,3.6585365854,-60,1.8902439024,-12,0.7317073171,1,-0.0043478261,-41,-0.1782608696,140,-0.6829268293
9740237,5976.5625,-2992,1.8344573881,144,0.088289393,-15936,9.7706928265,0,3.9024390244,-64,0,-13,0.7926829268,1,-0.0043478261,-38,-0.1652173913,139,-0.6780487805
9740877,5996.09375,-3136,1.9227467811,80,0.0490496628,-15872,9.7314530963,7,3.8414634146,-63,-0.4268292683,-10,0.6097560976,1,-0.0043478261,-43,-0.1869565217,139,-0.6780487805
9741517,6015.625,-3200,1.9619865113,48,0.0294297977,-15888,9.7412630288,7,3.8414634146,-63,-0.4268292683,-10,0.6097560976,2,-0.0086956522,-44,-0.1913043478,138,-0.6731707317
9742157,6035.15625,-3120,1.9129368486,80,0.0490496628,-15872,9.7314530963,-28,4.0243902439,-66,1.7073170732,-9,0.5487804878,0,0,-40,-0.1739130435,140,-0.6829268293
9742797,6054.6875,-3024,1.8540772532,144,0.088289393,-15744,9.6529736358,-10,3.7195121951,-61,0.6097560976,-4,0.243902439,0,0,-40,-0.1739130435,140,-0.6829268293
9743437,6074.21875,-3104,1.903126916,80,0.0490496628,-15744,9.6529736358,-10,3.7195121951,-61,0.6097560976,-4,0.243902439,1,-0.0043478261,-41,-0.1782608696,141,-0.687804878
9744077,6093.75,-3104,1.903126916,96,0.0588595953,-15680,9.6137339056,-36,3.7804878049,-62,2.1951219512,-10,0.6097560976,1,-0.0043478261,-41,-0.1782608696,139,-0.6780487805
9744717,6113.28125,-3024,1.8540772532,128,0.0784794605,-15664,9.603923973,-36,3.7804878049,-62,2.1951219512,-10,0.6097560976,1,-0.0043478261,-46,-0.2,141,-0.687804878
9745357,6132.8125,-2944,1.8050275904,176,0.1079092581,-15616,9.5744941754,-12,3.5975609756,-59,0.7317073171,-10,0.6097560976,1,-0.0043478261,-38,-0.1652173913,138,-0.6731707317
9745997,6152.34375,-3008,1.8442673207,224,0.1373390558,-15680,9.6137339056,8,3.1707317073,-52,-0.487804878,-9,0.5487804878,-1,0.0043478261,-42,-0.1826086957,140,-0.6829268293
9746637,6171.875,-3136,1.9227467811,256,0.1569589209,-15632,9.5843041079,8,3.1707317073,-52,-0.487804878,-9,0.5487804878,0,0,-42,-0.1826086957,139,-0.6780487805
9747277,6191.40625,-3152,1.9325567137,272,0.1667688535,-15552,9.5352544451,-28,2.6219512195,-43,1.7073170732,-4,0.243902439,0,0,-44,-0.1913043478,140,-0.6829268293
9747917,6210.9375,-2976,1.8246474555,176,0.1079092581,-15584,9.5548743102,-28,2.6219512195,-43,1.7073170732,-4,0.243902439,2,-0.0086956522,-39,-0.1695652174,139,-0.6780487805
9748557,6230.46875,-2960,1.814837523,176,0.1079092581,-15680,9.6137339056,-3,2.012195122,-33,0.1829268293,2,-0.1219512195,1,-0.0043478261,-42,-0.1826086957,140,-0.6829268293
9749197,6250,-3008,1.8442673207,176,0.1079092581,-15760,9.6627835684,-9,1.7682926829,-29,0.5487804878,3,-0.1829268293,0,0,-41,-0.1782608696,140,-0.6829268293
9749837,6269.53125,-2992,1.8344573881,144,0.088289393,-15760,9.6627835684,-9,1.7682926829,-29,0.5487804878,3,-0.1829268293,1,-0.0043478261,-43,-0.1869565217,140,-0.6829268293
9750477,6289.0625,-3056,1.8736971183,144,0.088289393,-15648,9.5941140405,-15,1.6463414634,-27,0.9146341463,1,-0.0609756098,1,-0.0043478261,-41,-0.1782608696,139,-0.6780487805
9751117,6308.59375,-3072,1.8835070509,80,0.0490496628,-15680,9.6137339056,-8,1.6463414634,-27,0.487804878,3,-0.1829268293,4,-0.0173913043,-45,-0.1956521739,141,-0.687804878
9751757,6328.125,-2960,1.814837523,160,0.0980993256,-15696,9.6235438381,-8,1.6463414634,-27,0.487804878,3,-0.1829268293,0,0,-40,-0.1739130435,141,-0.687804878
9752397,6347.65625,-2976,1.8246474555,176,0.1079092581,-15792,9.6824034335,10,2.012195122,-33,-0.6097560976,-5,0.3048780488,3,-0.0130434783,-41,-0.1782608696,140,-0.6829268293
9753037,6367.1875,-3008,1.8442673207,176,0.1079092581,-15776,9.6725935009,10,2.012195122,-33,-0.6097560976,-5,0.3048780488,0,0,-40,-0.1739130435,140,-0.6829268293
9753677,6386.71875,-3088,1.8933169834,80,0.0490496628,-15808,9.692213366,-4,1.8292682927,-30,0.243902439,-10,0.6097560976,3,-0.0130434783,-41,-0.1782608696,139,-0.6780487805
9754317,6406.25,-3104,1.903126916,144,0.088289393,-15968,9.7903126916,-16,1.7682926829,-29,0.9756097561,-7,0.4268292683,3,-0.0130434783,-41,-0.1782608696,140,-0.6829268293
9754957,6425.78125,-2960,1.814837523,160,0.0980993256,-15936,9.7706928265,-16,1.7682926829,-29,0.9756097561,-7,0.4268292683,1,-0.0043478261,-38,-0.1652173913,140,-0.6829268293
9755597,6445.3125,-2992,1.8344573881,96,0.0588595953,-15856,9.7216431637,-18,1.7073170732,-28,1.0975609756,2,-0.1219512195,2,-0.0086956522,-42,-0.1826086957,141,-0.687804878
9756237,6464.84375,-2992,1.8344573881,80,0.0490496628,-15888,9.7412630288,-18,1.7073170732,-28,1.0975609756,2,-0.1219512195,2,-0.0086956522,-38,-0.1652173913,139,-0.6780487805
9756877,6484.375,-2960,1.814837523,128,0.0784794605,-15968,9.7903126916,-21,2.3170731707,-38,1.2804878049,-1,0.0609756098,2,-0.0086956522,-42,-0.1826086957,141,-0.687804878
9757517,6503.90625,-2912,1.7854077253,64,0.0392397302,-15984,9.8001226242,-16,2.743902439,-45,0.9756097561,-2,0.1219512195,3,-0.0130434783,-42,-0.1826086957,140,-0.6829268293
9758157,6523.4375,-3024,1.8540772532,48,0.0294297977,-16016,9.8197424893,-16,2.743902439,-45,0.9756097561,-2,0.1219512195,1,-0.0043478261,-41,-0.1782608696,141,-0.687804878
9758797,6542.96875,-2928,1.7952176579,64,0.0392397302,-15936,9.7706928265,-15,3.4146341463,-56,0.9146341463,-16,0.9756097561,1,-0.0043478261,-39,-0.1695652174,138,-0.6731707317
9759437,6562.5,-2944,1.8050275904,80,0.0490496628,-15888,9.7412630288,-15,3.4146341463,-56,0.9146341463,-16,0.9756097561,1,-0.0043478261,-40,-0.1739130435,140,-0.6829268293
9760077,6582.03125,-3024,1.8540772532,48,0.0294297977,-15760,9.6627835684,9,3.7195121951,-61,-0.5487804878,-11,0.6707317073,3,-0.0130434783,-43,-0.1869565217,142,-0.6926829268
9760717,6601.5625,-3056,1.8736971183,128,0.0784794605,-15776,9.6725935009,-26,3.8414634146,-63,1.5853658537,-10,0.6097560976,-1,0.0043478261,-38,-0.1652173913,140,-0.6829268293
9761357,6621.09375,-2896,1.7755977928,128,0.0784794605,-15760,9.6627835684,-26,3.8414634146,-63,1.5853658537,-10,0.6097560976,2,-0.0086956522,-45,-0.1956521739,141,-0.687804878
9761997,6640.625,-2880,1.7657878602,96,0.0588595953,-15696,9.6235438381,-22,3.5365853659,-58,1.3414634146,-17,1.0365853659,1,-0.0043478261,-40,-0.1739130435,140,-0.6829268293
9762637,6660.15625,-2928,1.7952176579,128,0.0784794605,-15744,9.6529736358,0,3.4146341463,-56,0,-15,0.9146341463,-2,0.0086956522,-39,-0.1695652174,140,-0.6829268293
9763277,6679.6875,-3040,1.8638871858,144,0.088289393,-15728,9.6431637032,0,3.4146341463,-56,0,-15,0.9146341463,2,-0.0086956522,-40,-0.1739130435,142,-0.6926829268
9763917,6699.21875,-3056,1.8736971183,176,0.1079092581,-15680,9.6137339056,-9,3.3536585366,-55,0.5487804878,-11,0.6707317073,0,0,-41,-0.1782608696,140,-0.6829268293
9764557,6718.75,-2928,1.7952176579,96,0.0588595953,-15744,9.6529736358,-9,3.3536585366,-55,0.5487804878,-11,0.6707317073,4,-0.0173913043,-46,-0.2,141,-0.687804878
9765197,6738.28125,-3056,1.8736971183,80,0.0490496628,-15776,9.6725935009,15,3.5365853659,-58,-0.9146341463,-2,0.1219512195,3,-0.0130434783,-41,-0.1782608696,138,-0.6731707317
9765837,6757.8125,-3056,1.8736971183,128,0.0784794605,-15760,9.6627835684,-8,3.4146341463,-56,0.487804878,-7,0.4268292683,0,0,-41,-0.1782608696,141,-0.687804878
9766477,6777.34375,-3008,1.8442673207,80,0.0490496628,-15712,9.6333537707,-8,3.4146341463,-56,0.487804878,-7,0.4268292683,1,-0.0043478261,-39,-0.1695652174,139,-0.6780487805
9767117,6796.875,-3024,1.8540772532,128,0.0784794605,-15744,9.6529736358,1,3.1707317073,-52,-0.0609756098,-1,0.0609756098,3,-0.0130434783,-41,-0.1782608696,140,-0.6829268293
9767757,6816.40625,-3040,1.8638871858,128,0.0784794605,-15712,9.6333537707,1,3.1707317073,-52,-0.0609756098,-1,0.0609756098,1,-0.0043478261,-43,-0.1869565217,141,-0.687804878
9768397,6835.9375,-3024,1.8540772532,96,0.0588595953,-15744,9.6529736358,2,2.987804878,-49,-0.1219512195,3,-0.1829268293,1,-0.0043478261,-40,-0.1739130435,140,-0.6829268293
9769037,6855.46875,-2992,1.8344573881,96,0.0588595953,-15824,9.7020232986,6,3.1097560976,-51,-0.3658536585,2,-0.1219512195,1,-0.0043478261,-41,-0.1782608696,140,-0.6829268293
9769677,6875,-3008,1.8442673207,128,0.0784794605,-15808,9.692213366,6,3.1097560976,-51,-0.3658536585,2,-0.1219512195,1,-0.0043478261,-39,-0.1695652174,139,-0.6780487805
9770317,6894.53125,-2960,1.814837523,128,0.0784794605,-15792,9.6824034335,9,2.8658536585,-47,-0.5487804878,2,-0.1219512195,0,0,-43,-0.1869565217,140,-0.6829268293
9770957,6914.0625,-3024,1.8540772532,64,0.0392397302,-15696,9.6235438381,18,2.743902439,-45,-1.0975609756,11,-0.6707317073,3,-0.0130434783,-44,-0.1913043478,141,-0.687804878
9771597,6933.59375,-3024,1.8540772532,64,0.0392397302,-15664,9.603923973,18,2.743902439,-45,-1.0975609756,11,-0.6707317073,0,0,-45,-0.1956521739,141,-0.687804878
9772237,6953.125,-2976,1.8246474555,80,0.0490496628,-15760,9.6627835684,12,2.6829268293,-44,-0.7317073171,11,-0.6707317073,1,-0.0043478261,-44,-0.1913043478,140,-0.6829268293
9772877,6972.65625,-2960,1.814837523,160,0.0980993256,-15808,9.692213366,12,2.6829268293,-44,-0.7317073171,11,-0.6707317073,1,-0.0043478261,-42,-0.1826086957,139,-0.6780487805
9773517,6992.1875,-3024,1.8540772532,96,0.0588595953,-15792,9.6824034335,25,2.6829268293,-44,-1.5243902439,2,-0.1219512195,1,-0.0043478261,-44,-0.1913043478,140,-0.6829268293
9774157,7011.71875,-3088,1.8933169834,144,0.088289393,-15760,9.6627835684,1,2.743902439,-45,-0.0609756098,-2,0.1219512195,2,-0.0086956522,-40,-0.1739130435,139,-0.6780487805
9774797,7031.25,-3104,1.903126916,112,0.0686695279,-15728,9.6431637032,1,2.743902439,-45,-0.0609756098,-2,0.1219512195,1,-0.0043478261,-40,-0.1739130435,141,-0.687804878
9775437,7050.78125,3120,-1.9129368486,2784,1.7069282649,-15968,9.7903126916,3404,342.5,-5617,-207.5609756098,-863,52.6219512195,1,-0.0043478261,-40,-0.1739130435,141,-0.687804878
9776077,7070.3125,-4688,2.8743102391,1152,0.7063151441,-15840,9.7118332311,3404,342.5,-5617,-207.5609756098,-863,52.6219512195,2,-0.0086956522,-41,-0.1782608696,140,-0.6829268293
9776717,7089.84375,-7904,4.846106683,464,0.2844880441,-17120,10.4966278357,454,-3.0487804878,50,-27.6829268293,217,-13.2317073171,3,-0.0130434783,-36,-0.1565217391,138,-0.6731707317
9777357,7109.375,-4368,2.678111588,304,0.1863887186,-16304,9.9963212753,-874,20.4268292683,-335,53.2926829268,94,-5.7317073171,3,-0.0130434783,-43,-0.1869565217,141,-0.687804878
9777997,7128.90625,-2160,1.3243408952,-112,-0.0686695279,-15936,9.7706928265,-874,20.4268292683,-335,53.2926829268,94,-5.7317073171,-3,0.0130434783,-41,-0.1782608696,140,-0.6829268293
9778637,7148.4375,368,-0.2256284488,-352,-0.2158185162,-15632,9.5843041079,-278,8.7195121951,-143,16.9512195122,-75,4.5731707317,2,-0.0086956522,-43,-0.1869565217,142,-0.6926829268
9779277,7167.96875,-3248,1.991416309,-1392,-0.8534641324,-16848,10.3298589822,-278,8.7195121951,-143,16.9512195122,-75,4.5731707317,0,0,-39,-0.1695652174,140,-0.6829268293
9779917,7187.5,-3712,2.2759043532,-528,-0.3237277744,-17024,10.4377682403,367,-2.1341463415,35,-22.3780487805,16,-0.9756097561,3,-0.0130434783,-41,-0.1782608696,141,-0.687804878
9780557,7207.03125,-3168,1.9423666462,-304,-0.1863887186,-16848,10.3298589822,110,1.8292682927,-30,-6.7073170732,-13,0.7926829268,3,-0.0130434783,-42,-0.1826086957,141,-0.687804878
9781197,7226.5625,-3504,2.1483752299,-352,-0.2158185162,-17024,10.4377682403,110,1.8292682927,-30,-6.7073170732,-13,0.7926829268,1,-0.0043478261,-45,-0.1956521739,142,-0.6926829268
9781837,7246.09375,-3200,1.9619865113,-240,-0.1471489884,-16768,10.2808093194,-69,5.4268292683,-89,4.2073170732,-11,0.6707317073,0,0,-41,-0.1782608696,141,-0.687804878
9782477,7265.625,-2864,1.7559779277,-208,-0.1275291232,-16528,10.1336603311,-61,6.5853658537,-108,3.7195121951,-9,0.5487804878,2,-0.0086956522,-39,-0.1695652174,142,-0.6926829268
9783117,7285.15625,-2656,1.6284488044,-256,-0.1569589209,-16288,9.9865113427,-61,6.5853658537,-108,3.7195121951,-9,0.5487804878,1,-0.0043478261,-40,-0.1739130435,140,-0.6829268293
9783757,7304.6875,-2720,1.6676885346,-192,-0.1177191907,-16096,9.8687921521,42,6.8292682927,-112,-2.5609756098,-14,0.8536585366,2,-0.0086956522,-41,-0.1782608696,141,-0.687804878
9784397,7324.21875,-2992,1.8344573881,-160,-0.0980993256,-16032,9.8295524218,42,6.8292682927,-112,-2.5609756098,-14,0.8536585366,2,-0.0086956522,-39,-0.1695652174,142,-0.6926829268
9785037,7343.75,-3184,1.9521765788,-16,-0.0098099326,-15760,9.6627835684,49,7.3780487805,-121,-2.987804878,-14,0.8536585366,3,-0.0130434783,-45,-0.1956521739,140,-0.6829268293
9785677,7363.28125,-3184,1.9521765788,80,0.0490496628,-15632,9.5843041079,-29,7.1951219512,-118,1.7682926829,-15,0.9146341463,2,-0.0086956522,-45,-0.1956521739,142,-0.6926829268
9786317,7382.8125,-2944,1.8050275904,32,0.0196198651,-15616,9.5744941754,-29,7.1951219512,-118,1.7682926829,-15,0.9146341463,-1,0.0043478261,-39,-0.1695652174,140,-0.6829268293
9786957,7402.34375,-2960,1.814837523,64,0.0392397302,-15568,9.5450643777,-13,6.4024390244,-105,0.7926829268,-13,0.7926829268,0,0,-40,-0.1739130435,141,-0.687804878
9787597,7421.875,-2896,1.7755977928,32,0.0196198651,-15488,9.4960147149,-13,6.4024390244,-105,0.7926829268,-13,0.7926829268,2,-0.0086956522,-40,-0.1739130435,140,-0.6829268293
9788237,7441.40625,-3088,1.8933169834,48,0.0294297977,-15440,9.4665849172,27,4.9390243902,-81,-1.6463414634,1,-0.0609756098,4,-0.0173913043,-43,-0.1869565217,140,-0.6829268293
9788877,7460.9375,-3184,1.9521765788,32,0.0196198651,-15488,9.4960147149,-8,4.2682926829,-70,0.487804878,8,-0.487804878,1,-0.0043478261,-38,-0.1652173913,140,-0.6829268293
9789517,7480.46875,-2944,1.8050275904,80,0.0490496628,-15408,9.4469650521,-8,4.2682926829,-70,0.487804878,8,-0.487804878,1,-0.0043478261,-44,-0.1913043478,140,-0.6829268293
9790157,7500,14864,-9.1134273452,-16288,-9.9865113427,-11248,6.8963825874,-41,4.4512195122,-73,2.5,1,-0.0609756098,2,-0.0086956522,-44,-0.1913043478,141,-0.687804878
9790797,7519.53125,-2144,1.3145309626,1504,0.9221336603,-9072,5.5622317597,-41,4.4512195122,-73,2.5,1,-0.0609756098,3,-0.0130434783,-41,-0.1782608696,141,-0.687804878
9791437,7539.0625,-5648,3.4629061925,2000,1.2262415696,-14176,8.6916002452,468,-6.4634146341,106,-28.5365853659,26,-1.5853658537,1,-0.0043478261,-36,-0.1565217391,138,-0.6731707317
9792077,7558.59375,-6496,3.982832618,496,0.3041079093,-16400,10.0551808706,-361,8.5365853659,-140,22.012195122,143,-8.7195121951,1,-0.0043478261,-39,-0.1695652174,141,-0.687804878
9792717,7578.125,-3440,2.1091354997,-368,-0.2256284488,-16336,10.0159411404,-361,8.5365853659,-140,22.012195122,143,-8.7195121951,1,-0.0043478261,-42,-0.1826086957,140,-0.6829268293
9793357,7597.65625,656,-0.4022072348,-544,-0.3335377069,-13968,8.564071122,-515,23.2317073171,-381,31.4024390244,3,-0.1829268293,-2,0.0086956522,-43,-0.1869565217,140,-0.6829268293
9793997,7617.1875,-2416,1.4812998161,-480,-0.2942979767,-15664,9.603923973,342,-6.4634146341,106,-20.8536585366,68,-4.1463414634,0,0,-39,-0.1695652174,141,-0.687804878
9794637,7636.71875,-3888,2.3838136113,-512,-0.3139178418,-16688,10.2317596567,342,-6.4634146341,106,-20.8536585366,68,-4.1463414634,2,-0.0086956522,-40,-0.1739130435,140,-0.6829268293
9795277,7656.25,-2944,1.8050275904,-448,-0.2746781116,-16960,10.3985285101,14,-1.3414634146,22,-0.8536585366,-2,0.1219512195,1,-0.0043478261,-40,-0.1739130435,142,-0.6926829268
9795917,7675.78125,-3008,1.8442673207,-416,-0.2550582465,-17136,10.5064377682,14,-1.3414634146,22,-0.8536585366,-2,0.1219512195,-1,0.0043478261,-37,-0.1608695652,142,-0.6926829268
9796557,7695.3125,-3072,1.8835070509,-368,-0.2256284488,-17056,10.4573881055,2,2.012195122,-33,-0.1219512195,-22,1.3414634146,2,-0.0086956522,-40,-0.1739130435,140,-0.6829268293
9797197,7714.84375,-2976,1.8246474555,-432,-0.264868179,-16752,10.2709993869,-35,4.3902439024,-72,2.1341463415,-27,1.6463414634,1,-0.0043478261,-41,-0.1782608696,142,-0.6926829268
9797837,7734.375,-2912,1.7854077253,-432,-0.264868179,-16400,10.0551808706,-35,4.3902439024,-72,2.1341463415,-27,1.6463414634,-1,0.0043478261,-38,-0.1652173913,140,-0.6829268293
9798477,7753.90625,-2656,1.6284488044,-336,-0.2060085837,-16208,9.93746168,-36,5.5487804878,-91,2.1951219512,-24,1.4634146341,2,-0.0086956522,-39,-0.1695652174,140,-0.6829268293
9799117,7773.4375,-2784,1.7069282649,-384,-0.2354383814,-16144,9.8982219497,-36,5.5487804878,-91,2.1951219512,-24,1.4634146341,3,-0.0130434783,-44,-0.1913043478,142,-0.6926829268
9799757,7792.96875,-2896,1.7755977928,-288,-0.176578786,-16112,9.8786020846,60,5.6707317073,-93,-3.6585365854,-14,0.8536585366,3,-0.0130434783,-42,-0.1826086957,141,-0.687804878
9800397,7812.5,-3168,1.9423666462,-272,-0.1667688535,-15968,9.7903126916,24,5.5487804878,-91,-1.4634146341,-3,0.1829268293,0,0,-36,-0.1565217391,139,-0.6780487805
9801037,7832.03125,-3216,1.9717964439,-224,-0.1373390558,-15872,9.7314530963,24,5.5487804878,-91,-1.4634146341,-3,0.1829268293,1,-0.0043478261,-42,-0.1826086957,141,-0.687804878
9801677,7851.5625,-3120,1.9129368486,-240,-0.1471489884,-15744,9.6529736358,-26,5.6707317073,-93,1.5853658537,-3,0.1829268293,2,-0.0086956522,-42,-0.1826086957,141,-0.687804878
9802317,7871.09375,-2960,1.814837523,-224,-0.1373390558,-15760,9.6627835684,8,5,-82,-0.487804878,12,-0.7317073171,3,-0.0130434783,-42,-0.1826086957,141,-0.687804878
9802957,7890.625,-2864,1.7559779277,-224,-0.1373390558,-15712,9.6333537707,8,5,-82,-0.487804878,12,-0.7317073171,2,-0.0086956522,-42,-0.1826086957,141,-0.687804878
9803597,7910.15625,-2912,1.7854077253,-224,-0.1373390558,-15584,9.5548743102,11,4.2682926829,-70,-0.6707317073,10,-0.6097560976,2,-0.0086956522,-44,-0.1913043478,142,-0.6926829268
9804237,7929.6875,-2880,1.7657878602,-112,-0.0686695279,-15552,9.5352544451,11,4.2682926829,-70,-0.6707317073,10,-0.6097560976,3,-0.0130434783,-43,-0.1869565217,141,-0.687804878
9804877,7949.21875,672,-0.4120171674,6032,3.6983445739,-16128,9.8884120172,2641,157.4390243902,-2582,-161.0365853659,-1230,75,4,-0.0173913043,-40,-0.1739130435,138,-0.6731707317
9805517,7968.75,-3120,1.9129368486,1024,0.6278356836,-14752,9.0447578173,673,-5,82,-41.0365853659,-78,4.756097561,4,-0.0173913043,-38,-0.1652173913,138,-0.6731707317
9806157,7988.28125,-7632,4.6793378296,1888,1.1575720417,-16464,10.0944206009,673,-5,82,-41.0365853659,-78,4.756097561,4,-0.0173913043,-39,-0.1695652174,139,-0.6780487805
9806797,8007.8125,-4672,2.8645003066,192,0.1177191907,-15856,9.7216431637,-757,11.2804878049,-185,46.1585365854,77,-4.6951219512,3,-0.0130434783,-40,-0.1739130435,141,-0.687804878
9807437,8027.34375,-3120,1.9129368486,-32,-0.0196198651,-15888,9.7412630288,-757,11.2804878049,-185,46.1585365854,77,-4.6951219512,3,-0.0130434783,-39,-0.1695652174,139,-0.6780487805
9808077,8046.875,-2448,1.5009196812,-64,-0.0392397302,-16384,10.0453709381,-497,11.7682926829,-193,30.3048780488,37,-2.256097561,2,-0.0086956522,-42,-0.1826086957,140,-0.6829268293
9808717,8066.40625,-1600,0.9809932557,-1936,-1.1870018394,-16288,9.9865113427,90,1.5853658537,-26,-5.487804878,99,-6.0365853659,-4,0.0173913043,-38,-0.1652173913,141,-0.687804878
9809357,8085.9375,-2752,1.6873083998,-1520,-0.9319435929,-16704,10.2415695892,90,1.5853658537,-26,-5.487804878,99,-6.0365853659,0,0,-35,-0.152173913,142,-0.6926829268
9809997,8105.46875,-3520,2.1581851625,-320,-0.1961986511,-16768,10.2808093194,82,3.1707317073,-52,-5,-14,0.8536585366,2,-0.0086956522,-39,-0.1695652174,140,-0.6829268293
9810637,8125,-3600,2.2072348253,-544,-0.3335377069,-16656,10.2121397915,82,3.1707317073,-52,-5,-14,0.8536585366,2,-0.0086956522,-39,-0.1695652174,140,-0.6829268293
9811277,8144.53125,-3360,2.0600858369,-400,-0.2452483139,-16592,10.1729000613,-32,5.7926829268,-95,1.9512195122,-15,0.9146341463,1,-0.0043478261,-35,-0.152173913,140,-0.6829268293
9811917,8164.0625,-2960,1.814837523,-416,-0.2550582465,-16208,9.93746168,-40,6.2804878049,-103,2.4390243902,-2,0.1219512195,1,-0.0043478261,-39,-0.1695652174,141,-0.687804878
9812557,8183.59375,-2944,1.8050275904,-384,-0.2354383814,-16016,9.8197424893,-40,6.2804878049,-103,2.4390243902,-2,0.1219512195,2,-0.0086956522,-42,-0.1826086957,140,-0.6829268293
9813197,8203.125,-3024,1.8540772532,-368,-0.2256284488,-15872,9.7314530963,27,5.8536585366,-96,-1.6463414634,7,-0.4268292683,1,-0.0043478261,-41,-0.1782608696,141,-0.687804878
9813837,8222.65625,-3040,1.8638871858,-304,-0.1863887186,-15728,9.6431637032,53,5.7317073171,-94,-3.2317073171,8,-0.487804878,1,-0.0043478261,-39,-0.1695652174,141,-0.687804878
9814477,8242.1875,-3200,1.9619865113,-272,-0.1667688535,-15744,9.6529736358,53,5.7317073171,-94,-3.2317073171,8,-0.487804878,3,-0.0130434783,-44,-0.1913043478,141,-0.687804878
9815117,8261.71875,-3248,1.991416309,-192,-0.1177191907,-15680,9.6137339056,3,5.7317073171,-94,-0.1829268293,2,-0.1219512195,1,-0.0043478261,-40,-0.1739130435,141,-0.687804878
9815757,8281.25,-3120,1.9129368486,-144,-0.088289393,-15616,9.5744941754,3,5.7317073171,-94,-0.1829268293,2,-0.1219512195,2,-0.0086956522,-40,-0.1739130435,142,-0.6926829268
9816397,8300.78125,-2960,1.814837523,-96,-0.0588595953,-15520,9.51563458,-3,5.0609756098,-83,0.1829268293,1,-0.0609756098,3,-0.0130434783,-40,-0.1739130435,138,-0.6731707317
9817037,8320.3125,-3040,1.8638871858,-32,-0.0196198651,-15504,9.5058246475,26,4.0243902439,-66,-1.5853658537,9,-0.5487804878,3,-0.0130434783,-44,-0.1913043478,141,-0.687804878
9817677,8339.84375,-3024,1.8540772532,-96,-0.0588595953,-15504,9.5058246475,26,4.0243902439,-66,-1.5853658537,9,-0.5487804878,-1,0.0043478261,-39,-0.1695652174,140,-0.6829268293
9818317,8359.375,-3040,1.8638871858,-112,-0.0686695279,-15504,9.5058246475,20,3.7804878049,-62,-1.2195121951,7,-0.4268292683,2,-0.0086956522,-42,-0.1826086957,140,-0.6829268293
9818957,8378.90625,-4640,2.8448804414,8032,4.9245861435,-17904,10.977314531,20,3.7804878049,-62,-1.2195121951,7,-0.4268292683,4,-0.0173913043,-39,-0.1695652174,137,-0.6682926829
9819597,8398.4375,-5136,3.1489883507,192,0.1177191907,-15024,9.2115266708,622,-6.0365853659,99,-37.9268292683,-47,2.8658536585,8,-0.0347826087,-42,-0.1826086957,138,-0.6731707317
9820237,8417.96875,-7280,4.4635193133,1824,1.1183323115,-16160,9.9080318823,-349,8.9634146341,-147,21.2804878049,159,-9.6951219512,5,-0.0217391304,-41,-0.1782608696,137,-0.6682926829
9820877,8437.5,-5664,3.4727161251,224,0.1373390558,-15904,9.7510729614,-349,8.9634146341,-147,21.2804878049,159,-9.6951219512,3,-0.0130434783,-38,-0.1652173913,138,-0.6731707317
9821517,8457.03125,-4032,2.4721030043,-352,-0.2158185162,-16112,9.8786020846,-909,18.2926829268,-300,55.4268292683,119,-7.256097561,3,-0.0130434783,-42,-0.1826086957,139,-0.6780487805
9822157,8476.5625,-2112,1.2949110975,-736,-0.4512568976,-15936,9.7706928265,-909,18.2926829268,-300,55.4268292683,119,-7.256097561,1,-0.0043478261,-42,-0.1826086957,141,-0.687804878
9822797,8496.09375,-1376,0.8436541999,-1808,-1.1085223789,-16096,9.8687921521,-329,-19.8780487805,326,20.0609756098,-49,2.987804878,1,-0.0043478261,-38,-0.1652173913,141,-0.687804878
9823437,8515.625,-3168,1.9423666462,-1152,-0.7063151441,-16800,10.3004291845,160,-0.6097560976,10,-9.756097561,-10,0.6097560976,3,-0.0130434783,-43,-0.1869565217,140,-0.6829268293
9824077,8535.15625,-3456,2.1189454323,-576,-0.353157572,-16848,10.3298589822,160,-0.6097560976,10,-9.756097561,-10,0.6097560976,1,-0.0043478261,-41,-0.1782608696,139,-0.6780487805
9824717,8554.6875,-3648,2.2366646229,-592,-0.3629675046,-16784,10.290619252,58,2.256097561,-37,-3.5365853659,-7,0.4268292683,0,0,-42,-0.1826086957,140,-0.6829268293
9825357,8574.21875,-3616,2.2170447578,-640,-0.3923973023,-16688,10.2317596567,-96,5.1219512195,-84,5.8536585366,-6,0.3658536585,4,-0.0173913043,-43,-0.1869565217,140,-0.6829268293
9825997,8593.75,-3216,1.9717964439,-560,-0.3433476395,-16416,10.0649908032,-96,5.1219512195,-84,5.8536585366,-6,0.3658536585,2,-0.0086956522,-39,-0.1695652174,139,-0.6780487805
9826637,8613.28125,-2944,1.8050275904,-560,-0.3433476395,-16224,9.9472716125,-19,5.3658536585,-88,1.1585365854,5,-0.3048780488,2,-0.0086956522,-37,-0.1608695652,140,-0.6829268293
9827277,8632.8125,-2976,1.8246474555,-432,-0.264868179,-16112,9.8786020846,-19,5.3658536585,-88,1.1585365854,5,-0.3048780488,1,-0.0043478261,-39,-0.1695652174,139,-0.6780487805
9827917,8652.34375,-3200,1.9619865113,-368,-0.2256284488,-15904,9.7510729614,47,5.1219512195,-84,-2.8658536585,6,-0.3658536585,2,-0.0086956522,-39,-0.1695652174,139,-0.6780487805
9828557,8671.875,-3296,2.0208461067,-336,-0.2060085837,-15968,9.7903126916,-1,5.7317073171,-94,0.0609756098,2,-0.1219512195,4,-0.0173913043,-42,-0.1826086957,140,-0.6829268293
9829197,8691.40625,-3328,2.0404659718,-368,-0.2256284488,-15856,9.7216431637,-1,5.7317073171,-94,0.0609756098,2,-0.1219512195,1,-0.0043478261,-36,-0.1565217391,140,-0.6829268293
9829837,8710.9375,-3264,2.0012262416,-288,-0.176578786,-15648,9.5941140405,-27,5.9146341463,-97,1.6463414634,5,-0.3048780488,4,-0.0173913043,-41,-0.1782608696,140,-0.6829268293
9830477,8730.46875,-3072,1.8835070509,-368,-0.2256284488,-15488,9.4960147149,-27,5.9146341463,-97,1.6463414634,5,-0.3048780488,1,-0.0043478261,-44,-0.1913043478,141,-0.687804878
9831117,8750,-3024,1.8540772532,-304,-0.1863887186,-15504,9.5058246475,3,5.243902439,-86,-0.1829268293,6,-0.3658536585,1,-0.0043478261,-42,-0.1826086957,139,-0.6780487805
9831757,8769.53125,-3248,1.991416309,-240,-0.1471489884,-15504,9.5058246475,12,4.512195122,-74,-0.7317073171,14,-0.8536585366,2,-0.0086956522,-40,-0.1739130435,140,-0.6829268293
9832397,8789.0625,-3152,1.9325567137,-272,-0.1667688535,-15488,9.4960147149,12,4.512195122,-74,-0.7317073171,14,-0.8536585366,1,-0.0043478261,-40,-0.1739130435,138,-0.6731707317
9833037,8808.59375,-5648,3.4629061925,8720,5.3464132434,-15472,9.4862047823,5662,-246.7073170732,4046,-345.243902439,-3019,184.0853658537,5,-0.0217391304,-41,-0.1782608696,139,-0.6780487805
9833677,8828.125,-4256,2.6094420601,864,0.5297363581,-14384,8.8191293685,1435,-22.8048780488,374,-87.5,-60,3.6585365854,5,-0.0217391304,-36,-0.1565217391,135,-0.6585365854
9834317,8847.65625,-8080,4.9540159411,624,0.3825873697,-15568,9.5450643777,1435,-22.8048780488,374,-87.5,-60,3.6585365854,9,-0.0391304348,-42,-0.1826086957,134,-0.6536585366
9834957,8867.1875,-8352,5.1207847946,32,0.0196198651,-16208,9.93746168,-620,13.2926829268,-218,37.8048780488,94,-5.7317073171,5,-0.0217391304,-38,-0.1652173913,133,-0.6487804878
9835597,8886.71875,-8112,4.9736358063,-144,-0.088289393,-16752,10.2709993869,-620,13.2926829268,-218,37.8048780488,94,-5.7317073171,4,-0.0173913043,-35,-0.152173913,137,-0.6682926829
9836237,8906.25,-4160,2.5505824647,1360,0.8338442673,-15984,9.8001226242,-1994,37.9268292683,-622,121.5853658537,193,-11.7682926829,6,-0.0260869565,-42,-0.1826086957,139,-0.6780487805
9836877,8925.78125,1360,-0.8338442673,-3856,-2.3641937462,-15104,9.2605763335,-94,-2.5609756098,42,5.7317073171,323,-19.6951219512,2,-0.0086956522,-38,-0.1652173913,141,-0.687804878
9837517,8945.3125,-2016,1.2360515021,-3040,-1.8638871858,-16640,10.202329859,-94,-2.5609756098,42,5.7317073171,323,-19.6951219512,0,0,-34,-0.147826087,142,-0.6926829268
9838157,8964.84375,-3296,2.0208461067,-432,-0.264868179,-17168,10.5260576334,138,-2.8658536585,47,-8.4146341463,36,-2.1951219512,1,-0.0043478261,-42,-0.1826086957,141,-0.687804878
9838797,8984.375,-3376,2.0698957695,-1024,-0.6278356836,-17136,10.5064377682,138,-2.8658536585,47,-8.4146341463,36,-2.1951219512,3,-0.0130434783,-42,-0.1826086957,140,-0.6829268293
9839437,9003.90625,-4256,2.6094420601,-880,-0.5395462906,-17280,10.5947271613,148,-0.1829268293,3,-9.0243902439,8,-0.487804878,1,-0.0043478261,-38,-0.1652173913,139,-0.6780487805
9840077,9023.4375,-3744,2.2955242183,-976,-0.598405886,-16960,10.3985285101,-167,4.8170731707,-79,10.1829268293,-1,0.0609756098,2,-0.0086956522,-34,-0.147826087,139,-0.6780487805
9840717,9042.96875,-3056,1.8736971183,-912,-0.5591661557,-16640,10.202329859,-167,4.8170731707,-79,10.1829268293,-1,0.0609756098,1,-0.0043478261,-38,-0.1652173913,141,-0.687804878
9841357,9062.5,-2880,1.7657878602,-928,-0.5689760883,-16320,10.0061312078,-69,5.4268292683,-89,4.2073170732,26,-1.5853658537,2,-0.0086956522,-40,-0.1739130435,140,-0.6829268293
9841997,9082.03125,-2912,1.7854077253,-864,-0.5297363581,-16080,9.8589822195,-69,5.4268292683,-89,4.2073170732,26,-1.5853658537,1,-0.0043478261,-40,-0.1739130435,141,-0.687804878
9842637,9101.5625,-3104,1.903126916,-736,-0.4512568976,-15968,9.7903126916,53,5.1829268293,-85,-3.2317073171,15,-0.9146341463,2,-0.0086956522,-39,-0.1695652174,138,-0.6731707317
9843277,9121.09375,-3456,2.1189454323,-656,-0.4022072348,-15808,9.692213366,29,5.7317073171,-94,-1.7682926829,20,-1.2195121951,4,-0.0173913043,-42,-0.1826086957,141,-0.687804878
9843917,9140.625,-3504,2.1483752299,-640,-0.3923973023,-15696,9.6235438381,29,5.7317073171,-94,-1.7682926829,20,-1.2195121951,2,-0.0086956522,-38,-0.1652173913,140,-0.6829268293
9844557,9160.15625,-3312,2.0306560392,-624,-0.3825873697,-15616,9.5744941754,-96,6.1585365854,-101,5.8536585366,27,-1.6463414634,2,-0.0086956522,-40,-0.1739130435,142,-0.6926829268
9845197,9179.6875,-2976,1.8246474555,-624,-0.3825873697,-15440,9.4665849172,-62,5.1829268293,-85,3.7804878049,29,-1.7682926829,2,-0.0086956522,-43,-0.1869565217,142,-0.6926829268
9845837,9199.21875,-2912,1.7854077253,-528,-0.3237277744,-15328,9.3979153893,-62,5.1829268293,-85,3.7804878049,29,-1.7682926829,3,-0.0130434783,-43,-0.1869565217,142,-0.6926829268
9846477,9218.75,-3104,1.903126916,-496,-0.3041079093,-15296,9.3782955242,-4,3.9634146341,-65,0.243902439,35,-2.1341463415,2,-0.0086956522,-42,-0.1826086957,140,-0.6829268293
9847117,9238.28125,-3264,2.0012262416,-512,-0.3139178418,-15200,9.3194359289,-4,3.9634146341,-65,0.243902439,35,-2.1341463415,1,-0.0043478261,-43,-0.1869565217,141,-0.687804878
9847757,9257.8125,-3072,1.8835070509,-512,-0.3139178418,-15248,9.3488657265,-57,2.9268292683,-48,3.4756097561,29,-1.7682926829,2,-0.0086956522,-42,-0.1826086957,141,-0.687804878
9848397,9277.34375,-2816,1.72654813,-432,-0.264868179,-15376,9.427345187,-41,1.0975609756,-18,2.5,38,-2.3170731707,0,0,-43,-0.1869565217,141,-0.687804878
9849037,9296.875,-2720,1.6676885346,-448,-0.2746781116,-15424,9.4567749847,-41,1.0975609756,-18,2.5,38,-2.3170731707,0,0,-40,-0.1739130435,141,-0.687804878
9849677,9316.40625,-2880,1.7657878602,-432,-0.264868179,-15600,9.5646842428,8,0,0,-0.487804878,44,-2.6829268293,1,-0.0043478261,-41,-0.1782608696,142,-0.6926829268
9850317,9335.9375,-2992,1.8344573881,-512,-0.3139178418,-15744,9.6529736358,8,0,0,-0.487804878,44,-2.6829268293,2,-0.0086956522,-42,-0.1826086957,142,-0.6926829268
9850957,9355.46875,-3120,1.9129368486,-624,-0.3825873697,-15952,9.780502759,-11,0.243902439,-4,0.6707317073,43,-2.6219512195,0,0,-42,-0.1826086957,141,-0.687804878
9851597,9375,-3536,2.167995095,-624,-0.3825873697,-16288,9.9865113427,-49,1.2195121951,-20,2.987804878,31,-1.8902439024,4,-0.0173913043,-45,-0.1956521739,141,-0.687804878
9859277,9609.375,-3728,2.2857142857,-1664,-1.0202329859,-21888,13.4199877376,-183,54.0243902439,-886,11.1585365854,828,-50.487804878,-2,0.0086956522,-53,-0.2304347826,142,-0.6926829268
9859917,9628.90625,-2480,1.5205395463,-1616,-0.9908031882,-21632,13.2630288167,-241,66.4634146341,-1090,14.6951219512,818,-49.8780487805,-5,0.0217391304,-57,-0.247826087,145,-0.7073170732
9860557,9648.4375,-1264,0.774984672,-1424,-0.8730839975,-21376,13.1060698958,-241,66.4634146341,-1090,14.6951219512,818,-49.8780487805,-4,0.0173913043,-59,-0.2565217391,143,-0.6975609756
9861197,9667.96875,-704,0.4316370325,-1040,-0.6376456162,-21168,12.9785407725,-235,78.7195121951,-1291,14.3292682927,769,-46.8902439024,-5,0.0217391304,-62,-0.2695652174,142,-0.6926829268
9861837,9687.5,-96,0.0588595953,-784,-0.4806866953,-20640,12.6548129982,-235,78.7195121951,-1291,14.3292682927,769,-46.8902439024,-4,0.0173913043,-66,-0.2869565217,141,-0.687804878
9862477,9707.03125,464,-0.2844880441,-240,-0.1471489884,-20384,12.4978540773,-375,90.9146341463,-1491,22.8658536585,656,-40,-3,0.0130434783,-71,-0.3086956522,144,-0.7024390244
9863117,9726.5625,1200,-0.7357449418,-32,-0.0196198651,-19584,12.0073574494,-505,101.5853658537,-1666,30.7926829268,532,-32.4390243902,-7,0.0304347826,-68,-0.2956521739,141,-0.687804878
9863757,9746.09375,1936,-1.1870018394,464,0.2844880441,-18544,11.3697118332,-505,101.5853658537,-1666,30.7926829268,532,-32.4390243902,-7,0.0304347826,-77,-0.3347826087,141,-0.687804878
9864397,9765.625,2640,-1.6186388719,1104,0.6768853464,-17840,10.9380748007,-576,107.6219512195,-1765,35.1219512195,376,-22.9268292683,-6,0.0260869565,-80,-0.347826087,141,-0.687804878
9865037,9785.15625,3136,-1.9227467811,1488,0.9123237278,-17152,10.5162477008,-530,111.7073170732,-1832,32.3170731707,263,-16.0365853659,-7,0.0304347826,-85,-0.3695652174,141,-0.687804878
9865677,9804.6875,3472,-2.1287553648,1952,1.1968117719,-16256,9.9668914776,-530,111.7073170732,-1832,32.3170731707,263,-16.0365853659,-6,0.0260869565,-84,-0.3652173913,138,-0.6731707317
9866317,9824.21875,4160,-2.5505824647,2480,1.5205395463,-15312,9.3881054568,-592,114.2682926829,-1874,36.0975609756,87,-5.3048780488,-7,0.0304347826,-95,-0.4130434783,140,-0.6829268293
9866957,9843.75,4800,-2.942979767,3088,1.8933169834,-14256,8.740649908,-592,114.2682926829,-1874,36.0975609756,87,-5.3048780488,-7,0.0304347826,-93,-0.4043478261,136,-0.6634146341
9867597,9863.28125,4944,-3.03126916,3792,2.3249540159,-13200,8.0931943593,-486,113.1097560976,-1855,29.6341463415,-102,6.2195121951,-7,0.0304347826,-97,-0.4217391304,134,-0.6536585366
9868237,9882.8125,4848,-2.9724095647,4688,2.8743102391,-12336,7.5634580012,-384,112.012195122,-1837,23.4146341463,-308,18.7804878049,-5,0.0217391304,-101,-0.4391304348,135,-0.6585365854
9868877,9902.34375,4944,-3.03126916,5392,3.3059472716,-11536,7.0729613734,-384,112.012195122,-1837,23.4146341463,-308,18.7804878049,-8,0.0347826087,-103,-0.447826087,132,-0.643902439
9869517,9921.875,4848,-2.9724095647,5920,3.629675046,-10528,6.4549356223,-359,108.5365853659,-1780,21.8902439024,-511,31.1585365854,-6,0.0260869565,-103,-0.447826087,129,-0.6292682927
9870157,9941.40625,4576,-2.8056407112,6464,3.9632127529,-9792,6.0036787247,-359,108.5365853659,-1780,21.8902439024,-511,31.1585365854,-7,0.0304347826,-107,-0.4652173913,128,-0.6243902439
9870797,9960.9375,4544,-2.7860208461,7072,4.3359901901,-9120,5.5916615573,-376,102.3780487805,-1679,22.9268292683,-719,43.8414634146,-5,0.0217391304,-107,-0.4652173913,126,-0.6146341463
9871437,9980.46875,4640,-2.8448804414,7728,4.7381974249,-8272,5.0717351318,-361,95.1219512195,-1560,22.012195122,-915,55.7926829268,-3,0.0130434783,-102,-0.4434782609,123,-0.6
9872077,10000,4576,-2.8056407112,8288,5.0815450644,-7456,4.5714285714,-361,95.1219512195,-1560,22.012195122,-915,55.7926829268,0,0,-110,-0.4782608696,122,-0.5951219512
9872717,10019.53125,4304,-2.6388718578,8608,5.2777437155,-7136,4.3752299203,-236,85.9756097561,-1410,14.3902439024,-1087,66.2804878049,-2,0.0086956522,-103,-0.447826087,119,-0.5804878049
9873357,10039.0625,3904,-2.3936235438,9024,5.532801962,-6208,3.806253832,-236,85.9756097561,-1410,14.3902439024,-1087,66.2804878049,2,-0.0086956522,-104,-0.452173913,118,-0.5756097561
9873997,10058.59375,3408,-2.0895156346,9200,5.6407112201,-5552,3.4040465972,-300,74.756097561,-1226,18.2926829268,-1261,76.8902439024,5,-0.0217391304,-106,-0.4608695652,116,-0.5658536585
9874637,10078.125,2832,-1.7363580625,9616,5.8957694666,-5600,3.4334763948,-371,63.7804878049,-1046,22.6219512195,-1440,87.8048780488,5,-0.0217391304,-100,-0.4347826087,115,-0.5609756098
9875277,10097.65625,2288,-1.4028203556,9984,6.1213979154,-5424,3.3255671367,-371,63.7804878049,-1046,22.6219512195,-1440,87.8048780488,6,-0.0260869565,-96,-0.4173913043,112,-0.5463414634
9875917,10117.1875,1840,-1.128142244,10000,6.1312078479,-4784,2.9331698345,-592,52.987804878,-869,36.0975609756,-1632,99.512195122,8,-0.0347826087,-96,-0.4173913043,113,-0.5512195122
9876557,10136.71875,1568,-0.9613733906,9904,6.0723482526,-4032,2.4721030043,-828,40.9146341463,-671,50.487804878,-1811,110.4268292683,10,-0.0434782609,-92,-0.4,111,-0.5414634146
9877197,10156.25,960,-0.5885959534,9648,5.9153893317,-3600,2.2072348253,-828,40.9146341463,-671,50.487804878,-1811,110.4268292683,13,-0.0565217391,-94,-0.4086956522,113,-0.5512195122
9877837,10175.78125,-528,0.3237277744,9568,5.8663396689,-3536,2.167995095,-1228,30.0609756098,-493,74.8780487805,-2042,124.512195122,13,-0.0565217391,-89,-0.3869565217,115,-0.5609756098
9878477,10195.3125,-1968,1.2066217045,9456,5.797670141,-3424,2.0993255671,-1228,30.0609756098,-493,74.8780487805,-2042,124.512195122,13,-0.0565217391,-82,-0.3565217391,115,-0.5609756098
9879117,10214.84375,-1408,0.863274065,9248,5.6701410178,-3152,1.9325567137,-2086,19.5731707317,-321,127.1951219512,-2316,141.2195121951,13,-0.0565217391,-79,-0.3434782609,117,-0.5707317073
9879757,10234.375,-352,0.2158185162,8480,5.1992642551,-3376,2.0698957695,-1986,6.4634146341,-106,121.0975609756,-2561,156.1585365854,11,-0.047826087,-75,-0.3260869565,122,-0.5951219512
9880397,10253.90625,-304,0.1863887186,8016,4.9147762109,-3952,2.4230533415,-1986,6.4634146341,-106,121.0975609756,-2561,156.1585365854,13,-0.0565217391,-74,-0.3217391304,126,-0.6146341463
9881037,10273.4375,-944,0.5787860208,7696,4.7185775598,-4016,2.4622930717,-1356,-6.2804878049,103,82.6829268293,-2703,164.8170731707,11,-0.047826087,-67,-0.2913043478,127,-0.6195121951
9881677,10292.96875,-1840,1.128142244,7200,4.4144696505,-4160,2.5505824647,-1356,-6.2804878049,103,82.6829268293,-2703,164.8170731707,11,-0.047826087,-65,-0.2826086957,131,-0.6390243902
9882317,10312.5,-2976,1.8246474555,6400,3.9239730227,-5232,3.207847946,-750,-17.6219512195,289,45.7317073171,-2776,169.2682926829,12,-0.052173913,-57,-0.247826087,131,-0.6390243902
9882957,10332.03125,-4912,3.0116492949,5712,3.5021459227,-6032,3.6983445739,-646,-21.0365853659,345,39.3902439024,-2739,167.012195122,8,-0.0347826087,-47,-0.2043478261,129,-0.6292682927
9883597,10351.5625,-6464,3.9632127529,5376,3.2961373391,-6224,3.8160637646,-646,-21.0365853659,345,39.3902439024,-2739,167.012195122,9,-0.0391304348,-47,-0.2043478261,133,-0.6487804878
9884237,10371.09375,-6896,4.2280809319,5056,3.0999386879,-5744,3.5217657879,-1201,-27.987804878,459,73.2317073171,-2614,159.3902439024,9,-0.0391304348,-38,-0.1652173913,134,-0.6536585366
9884877,10390.625,-6656,4.0809319436,4720,2.8939301042,-6176,3.7866339669,-1539,-39.8170731707,653,93.8414634146,-2495,152.1341463415,4,-0.0173913043,-30,-0.1304347826,136,-0.6634146341
9885517,10410.15625,-6016,3.6885346413,4656,2.854690374,-7328,4.492949111,-1539,-39.8170731707,653,93.8414634146,-2495,152.1341463415,3,-0.0130434783,-30,-0.1304347826,137,-0.6682926829
9886157,10429.6875,-5504,3.3746167995,3504,2.1483752299,-7200,4.4144696505,-1721,-53.5365853659,878,104.9390243902,-2212,134.8780487805,-2,0.0086956522,-21,-0.0913043478,141,-0.687804878
9886797,10449.21875,-5360,3.2863274065,1952,1.1968117719,-5744,3.5217657879,-1721,-53.5365853659,878,104.9390243902,-2212,134.8780487805,-3,0.0130434783,-21,-0.0913043478,143,-0.6975609756
9887437,10468.75,-4912,3.0116492949,1872,1.1477621091,-5216,3.1980380135,-2256,-74.3902439024,1220,137.5609756098,-2087,127.256097561,-12,0.052173913,-11,-0.047826087,145,-0.7073170732
9888077,10488.28125,-3840,2.3543838136,2720,1.6676885346,-6656,4.0809319436,-2389,-105.6707317073,1733,145.6707317073,-1878,114.512195122,-13,0.0565217391,-11,-0.047826087,146,-0.712195122
9888717,10507.8125,-2992,1.8344573881,560,0.3433476395,-6288,3.8553034948,-2389,-105.6707317073,1733,145.6707317073,-1878,114.512195122,-21,0.0913043478,-4,-0.0173913043,152,-0.7414634146
9889357,10527.34375,-2256,1.3832004905,-1568,-0.9613733906,-5984,3.6689147762,-2930,-134.6951219512,2209,178.6585365854,-1717,104.6951219512,-26,0.1130434783,2,0.0086956522,151,-0.7365853659
9889997,10546.875,-1392,0.8534641324,-1152,-0.7063151441,-10832,6.6413243409,-2930,-134.6951219512,2209,178.6585365854,-1717,104.6951219512,-34,0.147826087,9,0.0391304348,152,-0.7414634146
9890637,10566.40625,-656,0.4022072348,-2528,-1.549969344,-14720,9.0251379522,-2580,-155.1219512195,2544,157.3170731707,-1485,90.5487804878,-41,0.1782608696,12,0.052173913,151,-0.7365853659
9891277,10585.9375,-384,0.2354383814,-5536,-3.3942366646,-14768,9.0545677498,-2473,-154.2073170732,2529,150.7926829268,-1174,71.5853658537,-49,0.2130434783,18,0.0782608696,149,-0.7268292683
9891917,10605.46875,-416,0.2550582465,-7232,-4.4340895156,-14352,8.7995095034,-2473,-154.2073170732,2529,150.7926829268,-1174,71.5853658537,-54,0.2347826087,26,0.1130434783,148,-0.7219512195
9892557,10625,16,-0.0098099326,-6944,-4.2575107296,-17184,10.5358675659,-1963,-163.3536585366,2679,119.6951219512,-1026,62.5609756098,-62,0.2695652174,31,0.1347826087,144,-0.7024390244
9893197,10644.53125,1456,-0.8927038627,-7984,-4.8951563458,-19440,11.9190680564,-1963,-163.3536585366,2679,119.6951219512,-1026,62.5609756098,-61,0.2652173913,30,0.1304347826,142,-0.6926829268
9893837,10664.0625,496,-0.3041079093,-10480,-6.4255058246,-19040,11.6738197425,-1151,-160.6707317073,2635,70.1829268293,-551,33.5975609756,-68,0.2956521739,38,0.1652173913,136,-0.6634146341
9894477,10683.59375,-240,0.1471489884,-12320,-7.5536480687,-17968,11.0165542612,-1489,-156.4634146341,2566,90.7926829268,-485,29.5731707317,-70,0.3043478261,44,0.1913043478,134,-0.6536585366
9895117,10703.125,1424,-0.8730839975,-12576,-7.7106069896,-18624,11.418761496,-1489,-156.4634146341,2566,90.7926829268,-485,29.5731707317,-72,0.3130434783,40,0.1739130435,132,-0.643902439
9895757,10722.65625,2480,-1.5205395463,-13280,-8.1422440221,-18192,11.153893317,-1238,-154.0243902439,2526,75.487804878,-316,19.2682926829,-75,0.3260869565,45,0.1956521739,128,-0.6243902439
9896397,10742.1875,1712,-1.0496627836,-14480,-8.8779889638,-16816,10.3102391171,-1149,-152.6219512195,2503,70.0609756098,-212,12.9268292683,-77,0.3347826087,47,0.2043478261,122,-0.5951219512
9897037,10761.71875,1344,-0.8240343348,-15280,-9.3684855917,-15680,9.6137339056,-1149,-152.6219512195,2503,70.0609756098,-212,12.9268292683,-78,0.3391304348,47,0.2043478261,120,-0.5853658537
9897677,10781.25,2032,-1.2458614347,-15760,-9.6627835684,-15536,9.5254445126,-1298,-150.8536585366,2474,79.1463414634,-67,4.0853658537,-82,0.3565217391,56,0.2434782609,113,-0.5512195122
9898317,10800.78125,2352,-1.4420600858,-16128,-9.8884120172,-14848,9.1036174126,-1298,-150.8536585366,2474,79.1463414634,-67,4.0853658537,-84,0.3652173913,56,0.2434782609,109,-0.5317073171
9898957,10820.3125,2256,-1.3832004905,-16848,-10.3298589822,-14000,8.5836909871,-1334,-150.4268292683,2467,81.3414634146,-7,0.4268292683,-86,0.3739130435,57,0.247826087,104,-0.5073170732
9899597,10839.84375,2528,-1.549969344,-17856,-10.9478847333,-13536,8.299202943,-1387,-151.4634146341,2484,84.5731707317,57,-3.4756097561,-86,0.3739130435,56,0.2434782609,102,-0.4975609756
9900237,10859.375,3392,-2.079705702,-18544,-11.3697118332,-13616,8.3482526058,-1387,-151.4634146341,2484,84.5731707317,57,-3.4756097561,-89,0.3869565217,57,0.247826087,95,-0.4634146341
9900877,10878.90625,3552,-2.1778050276,-18656,-11.4383813611,-13840,8.4855916616,-966,-148.1097560976,2429,58.9024390244,304,-18.5365853659,-87,0.3782608696,58,0.252173913,91,-0.443902439
9901517,10898.4375,2816,-1.72654813,-19440,-11.9190680564,-13824,8.475781729,-966,-148.1097560976,2429,58.9024390244,304,-18.5365853659,-86,0.3739130435,58,0.252173913,85,-0.4146341463
9902157,10917.96875,1664,-1.0202329859,-20400,-12.5076640098,-14032,8.6033108522,-571,-142.4390243902,2336,34.8170731707,551,-33.5975609756,-89,0.3869565217,62,0.2695652174,81,-0.3951219512
9902797,10937.5,160,-0.0980993256,-20608,-12.635193133,-15584,9.5548743102,-798,-119.8170731707,1965,48.6585365854,782,-47.6829268293,-86,0.3739130435,62,0.2695652174,76,-0.3707317073
9903437,10957.03125,-2384,1.461679951,-20352,-12.4782342121,-17296,10.6045370938,-798,-119.8170731707,1965,48.6585365854,782,-47.6829268293,-84,0.3652173913,61,0.2652173913,73,-0.356097561
9904077,10976.5625,-2672,1.638258737,-18256,-11.1931330472,-17184,10.5358675659,-2232,-86.3414634146,1416,136.0975609756,1056,-64.3902439024,-82,0.3565217391,62,0.2695652174,69,-0.3365853659
9904717,10996.09375,-480,0.2942979767,-17952,-11.0067443286,-14576,8.9368485592,-2232,-86.3414634146,1416,136.0975609756,1056,-64.3902439024,-81,0.352173913,61,0.2652173913,70,-0.3414634146
9905357,11015.625,2304,-1.4126302882,-17872,-10.9576946658,-10896,6.6805640711,-3391,-58.9634146341,967,206.7682926829,1785,-108.8414634146,-77,0.3347826087,58,0.252173913,68,-0.3317073171
9905997,11035.15625,4960,-3.0410790926,-18160,-11.1342734519,-8016,4.9147762109,-3458,-27.0731707317,444,210.8536585366,2218,-135.243902439,-71,0.3086956522,59,0.2565217391,67,-0.3268292683
9906637,11054.6875,6864,-4.2084610668,-18368,-11.2618025751,-5424,3.3255671367,-3458,-27.0731707317,444,210.8536585366,2218,-135.243902439,-70,0.3043478261,61,0.2652173913,69,-0.3365853659
9907277,11074.21875,7264,-4.4537093807,-18400,-11.2814224402,-4480,2.7467811159,-2483,0.7317073171,-12,151.4024390244,2543,-155.0609756098,-63,0.2739130435,57,0.247826087,69,-0.3365853659
9907917,11093.75,6512,-3.9926425506,-18592,-11.3991416309,-4336,2.6584917229,-2078,8.7804878049,-144,126.7073170732,2681,-163.4756097561,-58,0.252173913,56,0.2434782609,72,-0.3512195122
9908557,11113.28125,6016,-3.6885346413,-19664,-12.0564071122,-3712,2.2759043532,-2078,8.7804878049,-144,126.7073170732,2681,-163.4756097561,-51,0.2217391304,54,0.2347826087,73,-0.356097561
9909197,11132.8125,3520,-2.1581851625,-20480,-12.5567136726,-3632,2.2268546904,-2217,15.8536585366,-260,135.1829268293,2609,-159.0853658537,-50,0.2173913043,55,0.2391304348,72,-0.3512195122
9909837,11152.34375,928,-0.5689760883,-19952,-12.2329858982,-3248,1.991416309,-2217,15.8536585366,-260,135.1829268293,2609,-159.0853658537,-42,0.1826086957,54,0.2347826087,76,-0.3707317073
9910477,11171.875,752,-0.4610668302,-20720,-12.7038626609,-2400,1.4714898835,-3153,27.987804878,-459,192.256097561,2725,-166.1585365854,-40,0.1739130435,51,0.2217391304,79,-0.3853658537
9911117,11191.40625,1088,-0.6670754139,-23424,-14.361741263,-1744,1.0692826487,-3892,32.1951219512,-528,237.3170731707,2914,-177.6829268293,-37,0.1608695652,48,0.2086956522,85,-0.4146341463
9911757,11210.9375,1168,-0.7161250766,-24720,-15.1563458001,-1344,0.8240343348,-3892,32.1951219512,-528,237.3170731707,2914,-177.6829268293,-32,0.1391304348,46,0.2,87,-0.4243902439
9912397,11230.46875,1664,-1.0202329859,-23424,-14.361741263,-1424,0.8730839975,-4363,54.4512195122,-893,266.0365853659,2799,-170.6707317073,-28,0.1217391304,41,0.1782608696,96,-0.4682926829
9913037,11250,2176,-1.3341508277,-22336,-13.6946658492,-2272,1.3930104231,-4363,54.4512195122,-893,266.0365853659,2799,-170.6707317073,-28,0.1217391304,38,0.1652173913,100,-0.487804878
9913677,11269.53125,2896,-1.7755977928,-22752,-13.9497240956,-3664,2.2464745555,-4220,51.8292682927,-850,257.3170731707,2791,-170.1829268293,-25,0.1086956522,37,0.1608695652,109,-0.5317073171
9914317,11289.0625,3984,-2.4426732066,-22816,-13.9889638259,-5456,3.3451870018,-3286,52.0731707317,-854,200.3658536585,2641,-161.0365853659,-25,0.1086956522,37,0.1608695652,112,-0.5463414634
9914957,11308.59375,3648,-2.2366646229,-21840,-13.3905579399,-7968,4.8853464132,-3286,52.0731707317,-854,200.3658536585,2641,-161.0365853659,-21,0.0913043478,26,0.1130434783,119,-0.5804878049
9915597,11328.125,2080,-1.2752912324,-21200,-12.9981606376,-9600,5.885959534,-1870,51.5243902439,-845,114.0243902439,2685,-163.7195121951,-22,0.0956521739,28,0.1217391304,121,-0.5902439024
9916237,11347.65625,368,-0.2256284488,-21152,-12.96873084,-9936,6.0919681177,-1198,53.4146341463,-876,73.0487804878,2694,-164.2682926829,-22,0.0956521739,23,0.1,125,-0.6097560976
9916877,11367.1875,-992,0.6082158185,-21712,-13.3120784795,-10736,6.5824647456,-1198,53.4146341463,-876,73.0487804878,2694,-164.2682926829,-17,0.0739130435,15,0.0652173913,127,-0.6195121951
9917517,11386.71875,-2016,1.2360515021,-21888,-13.4199877376,-11760,7.2103004292,-1266,70.1829268293,-1151,77.1951219512,2579,-157.256097561,-17,0.0739130435,11,0.047826087,132,-0.643902439
9918157,11406.25,-2944,1.8050275904,-21200,-12.9981606376,-12096,7.4163090129,-1266,70.1829268293,-1151,77.1951219512,2579,-157.256097561,-18,0.0782608696,10,0.0434782609,132,-0.643902439
9918797,11425.78125,-3072,1.8835070509,-20656,-12.6646229307,-12528,7.6811771919,-1925,87.743902439,-1439,117.3780487805,2362,-144.0243902439,-15,0.0652173913,4,0.0173913043,137,-0.6682926829
9919437,11445.3125,-2304,1.4126302882,-20880,-12.8019619865,-12928,7.9264255058,-2329,100.0609756098,-1641,142.012195122,2156,-131.4634146341,-15,0.0652173913,-4,-0.0173913043,143,-0.6975609756
9920077,11464.84375,-1840,1.128142244,-20848,-12.7823421214,-12528,7.6811771919,-2329,100.0609756098,-1641,142.012195122,2156,-131.4634146341,-18,0.0782608696,-9,-0.0391304348,150,-0.7317073171
9920717,11484.375,-848,0.5199264255,-19888,-12.193746168,-12176,7.4653586757,-2385,118.0487804878,-1936,145.4268292683,1866,-113.7804878049,-20,0.0869565217,-11,-0.047826087,150,-0.7317073171
9921357,11503.90625,144,-0.088289393,-18944,-11.6149601471,-12848,7.877375843,-2385,118.0487804878,-1936,145.4268292683,1866,-113.7804878049,-24,0.1043478261,-18,-0.0782608696,157,-0.7658536585
9921997,11523.4375,128,-0.0784794605,-18368,-11.2618025751,-14064,8.6229307174,-1922,126.7073170732,-2078,117.1951219512,1691,-103.1097560976,-27,0.1173913043,-25,-0.1086956522,159,-0.7756097561
9922637,11542.96875,64,-0.0392397302,-18240,-11.1833231147,-14496,8.8877988964,-1641,134.0853658537,-2199,100.0609756098,1521,-92.743902439,-31,0.1347826087,-33,-0.1434782609,164,-0.8
9923277,11562.5,448,-0.2746781116,-17584,-10.7811158798,-15248,9.3488657265,-1641,134.0853658537,-2199,100.0609756098,1521,-92.743902439,-33,0.1434782609,-37,-0.1608695652,166,-0.8097560976
9923917,11582.03125,720,-0.4414469651,-16096,-9.8687921521,-15440,9.4665849172,-1423,147.5609756098,-2420,86.7682926829,1332,-81.2195121951,-36,0.1565217391,-42,-0.1826086957,167,-0.8146341463
9924557,11601.5625,912,-0.5591661557,-15328,-9.3979153893,-15072,9.2409564684,-1423,147.5609756098,-2420,86.7682926829,1332,-81.2195121951,-37,0.1608695652,-48,-0.2086956522,169,-0.8243902439
9925197,11621.09375,1328,-0.8142244022,-14688,-9.0055180871,-15136,9.2801961987,-1338,151.2804878049,-2481,81.5853658537,1180,-71.9512195122,-42,0.1826086957,-56,-0.2434782609,170,-0.8292682927
9925837,11640.625,2448,-1.5009196812,-13408,-8.2207234825,-16064,9.8491722869,-1262,159.2682926829,-2612,76.9512195122,931,-56.7682926829,-43,0.1869565217,-64,-0.2782608696,171,-0.8341463415
9926477,11660.15625,3584,-2.1974248927,-12448,-7.6321275291,-16352,10.025751073,-1262,159.2682926829,-2612,76.9512195122,931,-56.7682926829,-48,0.2086956522,-72,-0.3130434783,170,-0.8292682927
9927117,11679.6875,3936,-2.413243409,-11904,-7.2985898222,-16448,10.0846106683,-937,162.8048780488,-2670,57.1341463415,674,-41.0975609756,-49,0.2130434783,-72,-0.3130434783,171,-0.8341463415
9927757,11699.21875,3808,-2.3347639485,-11056,-6.7786633967,-16800,10.3004291845,-781,169.6341463415,-2782,47.6219512195,365,-22.256097561,-52,0.2260869565,-83,-0.3608695652,168,-0.8195121951
9928397,11718.75,4256,-2.6094420601,-10320,-6.3274064991,-16416,10.0649908032,-781,169.6341463415,-2782,47.6219512195,365,-22.256097561,-52,0.2260869565,-91,-0.3956521739,168,-0.8195121951
9929037,11738.28125,3968,-2.4328632741,-9216,-5.6505211527,-15312,9.3881054568,-704,176.2195121951,-2890,42.9268292683,86,-5.243902439,-55,0.2391304348,-94,-0.4086956522,165,-0.8048780488
9929677,11757.8125,3520,-2.1581851625,-8400,-5.1502145923,-14576,8.9368485592,-704,176.2195121951,-2890,42.9268292683,86,-5.243902439,-56,0.2434782609,-100,-0.4347826087,161,-0.7853658537
9930317,11777.34375,3792,-2.3249540159,-7216,-4.4242795831,-14576,8.9368485592,-926,178.7195121951,-2931,56.4634146341,-224,13.6585365854,-58,0.252173913,-107,-0.4652173913,156,-0.7609756098
9930957,11796.875,4272,-2.6192519926,-6192,-3.7964438994,-14432,8.8485591662,-996,177.4390243902,-2910,60.7317073171,-441,26.8902439024,-59,0.2565217391,-114,-0.4956521739,155,-0.756097561
9931597,11816.40625,4224,-2.589822195,-5392,-3.3059472716,-14032,8.6033108522,-996,177.4390243902,-2910,60.7317073171,-441,26.8902439024,-62,0.2695652174,-121,-0.5260869565,150,-0.7317073171
9932237,11835.9375,4000,-2.4524831392,-4272,-2.6192519926,-13520,8.2893930104,-892,173.5975609756,-2847,54.3902439024,-595,36.2804878049,-60,0.2608695652,-123,-0.5347826087,146,-0.712195122
9932877,11855.46875,4384,-2.6879215205,-3184,-1.9521765788,-13040,7.9950950337,-892,173.5975609756,-2847,54.3902439024,-595,36.2804878049,-60,0.2608695652,-125,-0.5434782609,139,-0.6780487805
9933517,11875,4592,-2.8154506438,-2288,-1.4028203556,-12192,7.4751686082,-786,169.9390243902,-2787,47.9268292683,-714,43.5365853659,-61,0.2652173913,-129,-0.5608695652,137,-0.6682926829
9934157,11894.53125,4016,-2.4622930717,-1120,-0.686695279,-11776,7.2201103617,-682,164.1463414634,-2692,41.5853658537,-887,54.0853658537,-58,0.252173913,-138,-0.6,130,-0.6341463415
9934797,11914.0625,3760,-2.3053341508,-112,-0.0686695279,-11008,6.749233599,-682,164.1463414634,-2692,41.5853658537,-887,54.0853658537,-55,0.2391304348,-142,-0.6173913043,127,-0.6195121951
9935437,11933.59375,3792,-2.3249540159,560,0.3433476395,-10128,6.2096873084,-943,158.5975609756,-2601,57.5,-1112,67.8048780488,-54,0.2347826087,-141,-0.6130434783,116,-0.5658536585
9936077,11953.125,3808,-2.3347639485,1424,0.8730839975,-9136,5.6014714899,-943,158.5975609756,-2601,57.5,-1112,67.8048780488,-53,0.2304347826,-142,-0.6173913043,116,-0.5658536585
9936717,11972.65625,3920,-2.4034334764,2464,1.5107296137,-8560,5.2483139178,-1229,152.012195122,-2493,74.9390243902,-1378,84.0243902439,-50,0.2173913043,-145,-0.6304347826,108,-0.5268292683
9937357,11992.1875,3824,-2.3445738811,3264,2.0012262416,-7712,4.7283874923,-1570,142.256097561,-2333,95.7317073171,-1662,101.3414634146,-47,0.2043478261,-149,-0.647826087,105,-0.512195122
9937997,12011.71875,3664,-2.2464745555,3968,2.4328632741,-6784,4.159411404,-1570,142.256097561,-2333,95.7317073171,-1662,101.3414634146,-41,0.1782608696,-151,-0.6565217391,99,-0.4829268293
9938637,12031.25,3472,-2.1287553648,4912,3.0116492949,-6080,3.7277743716,-2075,129.8170731707,-2129,126.5243902439,-1947,118.7195121951,-42,0.1826086957,-146,-0.6347826087,95,-0.4634146341
9939277,12050.78125,3472,-2.1287553648,5760,3.5315757204,-5248,3.2176578786,-2522,114.8170731707,-1883,153.7804878049,-2230,135.9756097561,-33,0.1434782609,-145,-0.6304347826,91,-0.443902439
9939917,12070.3125,3600,-2.2072348253,6784,4.159411404,-4704,2.8841201717,-2522,114.8170731707,-1883,153.7804878049,-2230,135.9756097561,-31,0.1347826087,-147,-0.6391304348,90,-0.4390243902
9940557,12089.84375,3840,-2.3543838136,7792,4.7774371551,-4000,2.4524831392,-2602,95.243902439,-1562,158.6585365854,-2514,153.2926829268,-26,0.1130434783,-142,-0.6173913043,88,-0.4292682927
9941197,12109.375,4368,-2.678111588,8176,5.0128755365,-2480,1.5205395463,-2602,95.243902439,-1562,158.6585365854,-2514,153.2926829268,-19,0.0826086957,-141,-0.6130434783,88,-0.4292682927
9941837,12128.90625,4384,-2.6879215205,8240,5.0521152667,-1936,1.1870018394,-2092,72.1341463415,-1183,127.5609756098,-2706,165,-19,0.0826086957,-139,-0.6043478261,87,-0.4243902439
9942477,12148.4375,3152,-1.9325567137,8336,5.110974862,-2960,1.814837523,-1016,48.7804878049,-800,61.9512195122,-2720,165.8536585366,-10,0.0434782609,-136,-0.5913043478,88,-0.4292682927
9943117,12167.96875,1280,-0.7847946045,8320,5.1011649295,-3312,2.0306560392,-1016,48.7804878049,-800,61.9512195122,-2720,165.8536585366,-5,0.0217391304,-131,-0.5695652174,87,-0.4243902439
9943757,12187.5,-496,0.3041079093,8320,5.1011649295,-3216,1.9717964439,-589,37.6219512195,-617,35.9146341463,-2730,166.4634146341,0,0,-125,-0.5434782609,86,-0.4195121951
9944397,12207.03125,-1104,0.6768853464,8192,5.022685469,-3136,1.9227467811,-589,37.6219512195,-617,35.9146341463,-2730,166.4634146341,4,-0.0173913043,-121,-0.5260869565,84,-0.4097560976
9945037,12226.5625,-2192,1.3439607603,7760,4.75781729,-3104,1.903126916,-714,26.4024390244,-433,43.5365853659,-2780,169.512195122,9,-0.0391304348,-115,-0.5,85,-0.4146341463
9945677,12246.09375,-3744,2.2955242183,7856,4.8166768853,-3072,1.8835070509,-1054,16.7073170732,-274,64.2682926829,-2867,174.8170731707,12,-0.052173913,-109,-0.4739130435,85,-0.4146341463
9946317,12265.625,-5152,3.1587982833,8176,5.0128755365,-3408,2.0895156346,-1054,16.7073170732,-274,64.2682926829,-2867,174.8170731707,18,-0.0782608696,-106,-0.4608695652,89,-0.4341463415
9946957,12285.15625,-5440,3.3353770693,8000,4.9049662784,-3520,2.1581851625,-1697,7.012195122,-115,103.4756097561,-2949,179.8170731707,16,-0.0695652174,-97,-0.4217391304,90,-0.4390243902
9947597,12304.6875,-5696,3.4923359902,7440,4.5616186389,-4080,2.501532802,-1988,-3.1097560976,51,121.2195121951,-2944,179.512195122,21,-0.0913043478,-90,-0.3913043478,95,-0.4634146341
9948237,12324.21875,-5616,3.4432863274,7072,4.3359901901,-4016,2.4622930717,-1988,-3.1097560976,51,121.2195121951,-2944,179.512195122,24,-0.1043478261,-88,-0.3826086957,98,-0.4780487805
9948877,12343.75,-5680,3.4825260576,7104,4.3556100552,-3760,2.3053341508,-2263,-13.8414634146,227,137.987804878,-2915,177.743902439,24,-0.1043478261,-80,-0.347826087,105,-0.512195122
9949517,12363.28125,-6368,3.9043531576,7024,4.3065603924,-4096,2.5113427345,-2263,-13.8414634146,227,137.987804878,-2915,177.743902439,24,-0.1043478261,-73,-0.3173913043,106,-0.5170731707
9950157,12382.8125,-6016,3.6885346413,6800,4.1692213366,-4560,2.7958307787,-2429,-26.9512195122,442,148.1097560976,-2787,169.9390243902,23,-0.1,-65,-0.2826086957,112,-0.5463414634
9950797,12402.34375,-4816,2.9527896996,5936,3.6394849785,-5232,3.207847946,-2211,-40.4268292683,663,134.8170731707,-2604,158.7804878049,23,-0.1,-62,-0.2695652174,118,-0.5756097561
9951437,12421.875,-4208,2.5800122624,4768,2.9233599019,-5808,3.5610055181,-2211,-40.4268292683,663,134.8170731707,-2604,158.7804878049,19,-0.0826086957,-54,-0.2347826087,122,-0.5951219512
9952077,12441.40625,-4320,2.6486817903,4320,2.6486817903,-5760,3.5315757204,-2041,-50.3048780488,825,124.4512195122,-2534,154.512195122,16,-0.0695652174,-44,-0.1913043478,123,-0.6
9952717,12460.9375,-4272,2.6192519926,4048,2.4819129368,-5936,3.6394849785,-2041,-50.3048780488,825,124.4512195122,-2534,154.512195122,10,-0.0434782609,-36,-0.1565217391,127,-0.6195121951
9953357,12480.46875,-4304,2.6388718578,3264,2.0012262416,-7104,4.3556100552,-1813,-67.3780487805,1105,110.5487804878,-2354,143.5365853659,9,-0.0391304348,-35,-0.152173913,131,-0.6390243902
9953997,12500,-4400,2.6977314531,2304,1.4126302882,-7904,4.846106683,-1848,-80.3048780488,1317,112.6829268293,-2200,134.1463414634,5,-0.0217391304,-27,-0.1173913043,135,-0.6585365854
9954637,12519.53125,-4320,2.6486817903,1552,0.951563458,-8208,5.0324954016,-1848,-80.3048780488,1317,112.6829268293,-2200,134.1463414634,6,-0.0260869565,-28,-0.1217391304,136,-0.6634146341
9955277,12539.0625,-4064,2.4917228694,720,0.4414469651,-8480,5.1992642551,-2068,-98.4146341463,1614,126.0975609756,-2008,122.4390243902,-3,0.0130434783,-16,-0.0695652174,139,-0.6780487805
9955917,12558.59375,-3616,2.2170447578,-272,-0.1667688535,-10112,6.1998773758,-2068,-98.4146341463,1614,126.0975609756,-2008,122.4390243902,-5,0.0217391304,-12,-0.052173913,140,-0.6829268293
9956557,12578.125,-3392,2.079705702,-976,-0.598405886,-11440,7.0141017781,-1991,-114.6341463415,1880,121.4024390244,-1853,112.987804878,-12,0.052173913,-5,-0.0217391304,144,-0.7024390244
9957197,12597.65625,-3008,1.8442673207,-1456,-0.8927038627,-13168,8.0735744942,-1876,-127.012195122,2083,114.3902439024,-1609,98.1097560976,-14,0.0608695652,-3,-0.0130434783,142,-0.6926829268
9957837,12617.1875,-2928,1.7952176579,-2032,-1.2458614347,-14592,8.9466584917,-1876,-127.012195122,2083,114.3902439024,-1609,98.1097560976,-22,0.0956521739,8,0.0347826087,144,-0.7024390244
9958477,12636.71875,-3552,2.1778050276,-3040,-1.8638871858,-15440,9.4665849172,-1803,-131.4634146341,2156,109.9390243902,-1224,74.6341463415,-27,0.1173913043,7,0.0304347826,145,-0.7073170732
9959117,12656.25,-2992,1.8344573881,-3744,-2.2955242183,-16400,10.0551808706,-1714,-143.3536585366,2351,104.512195122,-955,58.2317073171,-32,0.1391304348,14,0.0608695652,144,-0.7024390244
9959757,12675.78125,-2016,1.2360515021,-5264,-3.2274678112,-18224,11.1735131821,-1714,-143.3536585366,2351,104.512195122,-955,58.2317073171,-32,0.1391304348,15,0.0652173913,143,-0.6975609756
9960397,12695.3125,-2480,1.5205395463,-6144,-3.7670141018,-20416,12.5174739424,-1259,-142.743902439,2341,76.7682926829,-795,48.4756097561,-38,0.1652173913,25,0.1086956522,140,-0.6829268293
9961037,12714.84375,-3008,1.8442673207,-7248,-4.4438994482,-19648,12.0465971796,-1259,-142.743902439,2341,76.7682926829,-795,48.4756097561,-39,0.1695652174,26,0.1130434783,140,-0.6829268293
9961677,12734.375,-1696,1.039852851,-7984,-4.8951563458,-18032,11.0557939914,-1674,-138.6585365854,2274,102.0731707317,-732,44.6341463415,-44,0.1913043478,29,0.1260869565,138,-0.6731707317
9962317,12753.90625,-336,0.2060085837,-8064,-4.9442060086,-18864,11.5659104844,-1329,-139.0243902439,2280,81.0365853659,-661,40.3048780488,-51,0.2217391304,31,0.1347826087,138,-0.6731707317
9962957,12773.4375,64,-0.0392397302,-8720,-5.3464132434,-19520,11.9681177192,-1329,-139.0243902439,2280,81.0365853659,-661,40.3048780488,-52,0.2260869565,33,0.1434782609,135,-0.6585365854
9963597,12792.96875,32,-0.0196198651,-9744,-5.974248927,-17520,10.7418761496,-1207,-133.9024390244,2196,73.5975609756,-510,31.0975609756,-53,0.2304347826,36,0.1565217391,133,-0.6487804878
9964237,12812.5,384,-0.2354383814,-10528,-6.4549356223,-16096,9.8687921521,-1207,-133.9024390244,2196,73.5975609756,-510,31.0975609756,-59,0.2565217391,44,0.1913043478,127,-0.6195121951
9964877,12832.03125,1840,-1.128142244,-10784,-6.6118945432,-15888,9.7412630288,-1429,-134.6951219512,2209,87.1341463415,-472,28.7804878049,-60,0.2608695652,44,0.1913043478,126,-0.6146341463
9965517,12851.5625,2752,-1.6873083998,-11696,-7.171060699,-15360,9.4175352544,-1292,-137.6829268293,2258,78.7804878049,-290,17.6829268293,-64,0.2782608696,48,0.2086956522,121,-0.5902439024
9966157,12871.09375,2640,-1.6186388719,-12320,-7.5536480687,-15056,9.2311465359,-1292,-137.6829268293,2258,78.7804878049,-290,17.6829268293,-64,0.2782608696,45,0.1956521739,120,-0.5853658537
9966797,12890.625,2816,-1.72654813,-12192,-7.4751686082,-15504,9.5058246475,-1560,-140.487804878,2304,95.1219512195,-202,12.3170731707,-69,0.3,52,0.2260869565,113,-0.5512195122
9967437,12910.15625,4160,-2.5505824647,-13056,-8.0049049663,-16304,9.9963212753,-1560,-140.487804878,2304,95.1219512195,-202,12.3170731707,-71,0.3086956522,57,0.247826087,111,-0.5414634146
9968077,12929.6875,4960,-3.0410790926,-14848,-9.1036174126,-16096,9.8687921521,-1650,-140.0609756098,2297,100.6097560976,-10,0.6097560976,-72,0.3130434783,54,0.2347826087,108,-0.5268292683
9968717,12949.21875,4992,-3.0606989577,-16160,-9.9080318823,-14832,9.0938074801,-1652,-131.3414634146,2154,100.7317073171,-102,6.2195121951,-74,0.3217391304,60,0.2608695652,103,-0.5024390244
9969357,12968.75,5136,-3.1489883507,-16752,-10.2709993869,-14256,8.740649908,-1652,-131.3414634146,2154,100.7317073171,-102,6.2195121951,-75,0.3260869565,54,0.2347826087,100,-0.487804878
9969997,12988.28125,6304,-3.8651134273,-17392,-10.6633966891,-15024,9.2115266708,-1244,-127.5609756098,2092,75.8536585366,-324,19.756097561,-79,0.3434782609,60,0.2608695652,96,-0.4682926829
9970637,13007.8125,7136,-4.3752299203,-18096,-11.0950337216,-16464,10.0944206009,-83,-117.6219512195,1929,5.0609756098,-231,14.0853658537,-77,0.3347826087,59,0.2565217391,90,-0.4390243902
9971277,13027.34375,4624,-2.8350705089,-18512,-11.3500919681,-17632,10.8105456775,-83,-117.6219512195,1929,5.0609756098,-231,14.0853658537,-78,0.3391304348,58,0.252173913,90,-0.4390243902
9971917,13046.875,1360,-0.8338442673,-18000,-11.0361741263,-16528,10.1336603311,-176,-83.3536585366,1367,10.7317073171,-114,6.9512195122,-82,0.3565217391,58,0.252173913,87,-0.4243902439
9972557,13066.40625,-752,0.4610668302,-16720,-10.2513795218,-13824,8.475781729,-176,-83.3536585366,1367,10.7317073171,-114,6.9512195122,-79,0.3434782609,61,0.2652173913,84,-0.4097560976
9973197,13085.9375,-608,0.3727774372,-15536,-9.5254445126,-13056,8.0049049663,-1367,-56.2195121951,922,83.3536585366,18,-1.0975609756,-82,0.3565217391,60,0.2608695652,82,-0.4
9973837,13105.46875,912,-0.5591661557,-15344,-9.4077253219,-13568,8.3188228081,-2274,-37.5,615,138.6585365854,323,-19.6951219512,-81,0.352173913,58,0.252173913,81,-0.3951219512
9974477,13125,1264,-0.774984672,-14336,-8.7896995708,-13216,8.1030042918,-2274,-37.5,615,138.6585365854,323,-19.6951219512,-80,0.347826087,60,0.2608695652,81,-0.3951219512
9975117,13144.53125,1744,-1.0692826487,-13232,-8.1128142244,-11376,6.9748620478,-2897,-27.8048780488,456,176.6463414634,707,-43.1097560976,-79,0.3434782609,58,0.252173913,79,-0.3853658537
9975757,13164.0625,4384,-2.6879215205,-13040,-7.9950950337,-8640,5.2973635806,-2897,-27.8048780488,456,176.6463414634,707,-43.1097560976,-78,0.3391304348,58,0.252173913,79,-0.3853658537
9976397,13183.59375,8176,-5.0128755365,-14048,-8.6131207848,-6752,4.1397915389,-2634,-17.0731707317,280,160.6097560976,1269,-77.3780487805,-78,0.3391304348,63,0.2739130435,79,-0.3853658537
9977037,13203.125,8896,-5.4543225015,-14064,-8.6229307174,-5296,3.2470876763,-1244,-4.0243902439,66,75.8536585366,1527,-93.1097560976,-75,0.3260869565,59,0.2565217391,78,-0.3804878049
9977677,13222.65625,7584,-4.6499080319,-13760,-8.4365419988,-4864,2.9822194972,-1244,-4.0243902439,66,75.8536585366,1527,-93.1097560976,-75,0.3260869565,61,0.2652173913,79,-0.3853658537
9978317,13242.1875,6656,-4.0809319436,-14288,-8.7602697731,-4624,2.8350705089,-749,-1.0365853659,17,45.6707317073,1833,-111.7682926829,-70,0.3043478261,60,0.2608695652,80,-0.3902439024
9978957,13261.71875,5840,-3.5806253832,-14960,-9.1722869405,-5104,3.1293684856,-893,-0.4268292683,7,54.4512195122,2014,-122.8048780488,-67,0.2913043478,61,0.2652173913,79,-0.3853658537
9979597,13281.25,4880,-2.9920294298,-15664,-9.603923973,-5984,3.6689147762,-893,-0.4268292683,7,54.4512195122,2014,-122.8048780488,-62,0.2695652174,57,0.247826087,81,-0.3951219512
9980237,13300.78125,4128,-2.5309625996,-16064,-9.8491722869,-6320,3.8749233599,-1461,6.0365853659,-99,89.0853658537,2081,-126.8902439024,-56,0.2434782609,55,0.2391304348,82,-0.4
9980877,13320.3125,2864,-1.7559779277,-17040,-10.4475781729,-5920,3.629675046,-1461,6.0365853659,-99,89.0853658537,2081,-126.8902439024,-54,0.2347826087,58,0.252173913,81,-0.3951219512
9981517,13339.84375,1728,-1.0594727161,-18464,-11.3206621704,-5664,3.4727161251,-2035,15.9756097561,-262,124.0853658537,2187,-133.3536585366,-50,0.2173913043,57,0.247826087,84,-0.4097560976
9982157,13359.375,1040,-0.6376456162,-19936,-12.2231759657,-5888,3.6100551809,-2635,27.8658536585,-457,160.6707317073,2290,-139.6341463415,-49,0.2130434783,55,0.2391304348,84,-0.4097560976
9982797,13378.90625,944,-0.5787860208,-20640,-12.6548129982,-6176,3.7866339669,-2635,27.8658536585,-457,160.6707317073,2290,-139.6341463415,-44,0.1913043478,51,0.2217391304,89,-0.4341463415
9983437,13398.4375,2240,-1.3733905579,-20176,-12.370324954,-6000,3.6787247088,-3046,37.6829268293,-618,185.7317073171,2293,-139.8170731707,-43,0.1869565217,50,0.2173913043,89,-0.4341463415
9984077,13417.96875,3904,-2.3936235438,-19744,-12.105456775,-7472,4.581238504,-3046,37.6829268293,-618,185.7317073171,2293,-139.8170731707,-36,0.1565217391,47,0.2043478261,95,-0.4634146341
9984717,13437.5,3840,-2.3543838136,-20464,-12.54690374,-9520,5.8369098712,-2201,30.1829268293,-495,134.2073170732,2408,-146.8292682927,-37,0.1608695652,44,0.1913043478,98,-0.4780487805
9985357,13457.03125,2592,-1.5892090742,-20752,-12.7234825261,-10176,6.2391171061,-1326,29.6951219512,-487,80.8536585366,2538,-154.756097561,-31,0.1347826087,43,0.1869565217,100,-0.487804878
9985997,13476.5625,992,-0.6082158185,-20784,-12.7431023912,-10752,6.5922746781,-1326,29.6951219512,-487,80.8536585366,2538,-154.756097561,-28,0.1217391304,38,0.1652173913,101,-0.4926829268
9986637,13496.09375,-528,0.3237277744,-21120,-12.9491109749,-11184,6.8571428571,-1000,38.0487804878,-624,60.9756097561,2636,-160.7317073171,-24,0.1043478261,39,0.1695652174,103,-0.5024390244
9987277,13515.625,-1520,0.9319435929,-21728,-13.321888412,-11616,7.1220110362,-1000,38.0487804878,-624,60.9756097561,2636,-160.7317073171,-24,0.1043478261,37,0.1608695652,107,-0.5219512195
9987917,13535.15625,-1856,1.1379521766,-23040,-14.1263028817,-12784,7.8381361128,-1063,50.243902439,-824,64.8170731707,2645,-161.2804878049,-19,0.0826086957,32,0.1391304348,110,-0.5365853659
9988557,13554.6875,-2752,1.6873083998,-23424,-14.361741263,-13696,8.3973022685,-1281,73.4756097561,-1205,78.1097560976,2516,-153.4146341463,-15,0.0652173913,27,0.1173913043,113,-0.5512195122
9989197,13574.21875,-3728,2.2857142857,-22864,-14.0183936235,-12832,7.8675659105,-1281,73.4756097561,-1205,78.1097560976,2516,-153.4146341463,-13,0.0565217391,22,0.0956521739,118,-0.5756097561
9989837,13593.75,-3440,2.1091354997,-22320,-13.6848559166,-13040,7.9950950337,-1869,93.7195121951,-1537,113.9634146341,2244,-136.8292682927,-12,0.052173913,19,0.0826086957,119,-0.5804878049
9990477,13613.28125,-2768,1.6971183323,-22336,-13.6946658492,-13744,8.4267320662,-1955,111.9512195122,-1836,119.2073170732,2106,-128.4146341463,-11,0.047826087,13,0.0565217391,124,-0.6048780488
9991117,13632.8125,-2832,1.7363580625,-22160,-13.586756591,-12608,7.7302268547,-1955,111.9512195122,-1836,119.2073170732,2106,-128.4146341463,-13,0.0565217391,8,0.0347826087,131,-0.6390243902
9991757,13652.34375,-2064,1.2654812998,-21136,-12.9589209074,-11120,6.8179031269,-2055,127.5609756098,-2092,125.3048780488,1895,-115.5487804878,-12,0.052173913,1,0.0043478261,138,-0.6731707317
9992397,13671.875,-1232,0.7553648069,-19952,-12.2329858982,-11088,6.7982832618,-2055,127.5609756098,-2092,125.3048780488,1895,-115.5487804878,-15,0.0652173913,4,0.0173913043,139,-0.6780487805
9993037,13691.40625,-1328,0.8142244022,-19088,-11.7032495402,-11504,7.0533415083,-1621,136.1585365854,-2233,98.8414634146,1775,-108.2317073171,-15,0.0652173913,-10,-0.0434782609,146,-0.712195122
9993677,13710.9375,-2128,1.30472103,-18160,-11.1342734519,-11088,6.7982832618,-1426,137.6219512195,-2257,86.9512195122,1751,-106.7682926829,-16,0.0695652174,-17,-0.0739130435,150,-0.7317073171
9994317,13730.46875,-1872,1.1477621091,-16944,-10.3887185776,-10896,6.6805640711,-1426,137.6219512195,-2257,86.9512195122,1751,-106.7682926829,-18,0.0782608696,-24,-0.1043478261,153,-0.7463414634
9994957,13750,-1456,0.8927038627,-15872,-9.7314530963,-11632,7.1318209687,-1267,139.8780487805,-2294,77.256097561,1649,-100.5487804878,-18,0.0782608696,-28,-0.1217391304,155,-0.756097561
9995597,13769.53125,-1648,1.0104230533,-15136,-9.2801961987,-11616,7.1220110362,-1267,139.8780487805,-2294,77.256097561,1649,-100.5487804878,-19,0.0826086957,-38,-0.1652173913,158,-0.7707317073
9996237,13789.0625,-1632,1.0006131208,-14176,-8.6916002452,-11520,7.0631514408,-1054,137.0731707317,-2248,64.2682926829,1682,-102.5609756098,-22,0.0956521739,-38,-0.1652173913,160,-0.7804878049
9996877,13808.59375,-1440,0.8828939301,-13200,-8.0931943593,-12368,7.5830778663,-889,137.1951219512,-2250,54.2073170732,1606,-97.9268292683,-23,0.1,-46,-0.2,161,-0.7853658537
9997517,13828.125,-1232,0.7553648069,-12448,-7.6321275291,-13344,8.1814837523,-889,137.1951219512,-2250,54.2073170732,1606,-97.9268292683,-25,0.1086956522,-50,-0.2173913043,163,-0.7951219512
9998157,13847.65625,-1264,0.774984672,-12000,-7.3574494175,-13664,8.3776824034,-805,135.243902439,-2218,49.0853658537,1592,-97.0731707317,-27,0.1173913043,-63,-0.2739130435,165,-0.8048780488
9998797,13867.1875,-832,0.5101164929,-11312,-6.9356223176,-13920,8.5346413243,-860,135.8536585366,-2228,52.4390243902,1432,-87.3170731707,-29,0.1260869565,-63,-0.2739130435,163,-0.7951219512
9999437,13886.71875,-288,0.176578786,-10160,-6.2293071735,-14528,8.9074187615,-860,135.8536585366,-2228,52.4390243902,1432,-87.3170731707,-31,0.1347826087,-74,-0.3217391304,162,-0.7902439024
10000077,13906.25,160,-0.0980993256,-9168,-5.621091355,-14784,9.0643776824,-822,135.243902439,-2218,50.1219512195,1371,-83.5975609756,-31,0.1347826087,-80,-0.347826087,165,-0.8048780488
10000717,13925.78125,144,-0.088289393,-8368,-5.1305947272,-14288,8.7602697731,-822,135.243902439,-2218,50.1219512195,1371,-83.5975609756,-36,0.1565217391,-85,-0.3695652174,163,-0.7951219512
10001357,13945.3125,1200,-0.7357449418,-7360,-4.5125689761,-14096,8.6425505825,-988,135.1219512195,-2216,60.243902439,1234,-75.243902439,-39,0.1695652174,-86,-0.3739130435,162,-0.7902439024
10001997,13964.84375,2736,-1.6774984672,-6176,-3.7866339669,-14528,8.9074187615,-911,135.7317073171,-2226,55.5487804878,1031,-62.8658536585,-42,0.1826086957,-96,-0.4173913043,160,-0.7804878049
10002637,13984.375,3360,-2.0600858369,-5216,-3.1980380135,-14672,8.9957081545,-911,135.7317073171,-2226,55.5487804878,1031,-62.8658536585,-45,0.1956521739,-103,-0.447826087,160,-0.7804878049
10003277,14003.90625,2848,-1.7461679951,-4496,-2.7565910484,-14464,8.8681790313,-697,133.4756097561,-2189,42.5,816,-49.756097561,-48,0.2086956522,-109,-0.4739130435,155,-0.756097561
10003917,14023.4375,3232,-1.9816063765,-3776,-2.3151440834,-14256,8.740649908,-697,133.4756097561,-2189,42.5,816,-49.756097561,-47,0.2043478261,-112,-0.4869565217,153,-0.7463414634
10004557,14042.96875,3984,-2.4426732066,-3040,-1.8638871858,-13936,8.5444512569,-846,135.7317073171,-2226,51.5853658537,504,-30.7317073171,-53,0.2304347826,-118,-0.5130434783,150,-0.7317073171
10005197,14062.5,4080,-2.501532802,-2048,-1.2556713673,-13696,8.3973022685,-806,136.7682926829,-2243,49.1463414634,177,-10.7926829268,-55,0.2391304348,-117,-0.5086956522,149,-0.7268292683
10005837,14082.03125,4256,-2.6094420601,-896,-0.5493562232,-13248,8.122624157,-806,136.7682926829,-2243,49.1463414634,177,-10.7926829268,-54,0.2347826087,-121,-0.5260869565,144,-0.7024390244
10006477,14101.5625,4880,-2.9920294298,-96,-0.0588595953,-12544,7.6909871245,-915,136.3414634146,-2236,55.7926829268,-158,9.6341463415,-58,0.252173913,-130,-0.5652173913,141,-0.687804878
10007117,14121.09375,5152,-3.1587982833,608,0.3727774372,-11904,7.2985898222,-915,136.3414634146,-2236,55.7926829268,-158,9.6341463415,-55,0.2391304348,-131,-0.5695652174,134,-0.6536585366
10007757,14140.625,4880,-2.9920294298,1552,0.951563458,-11696,7.171060699,-731,132.1341463415,-2167,44.5731707317,-428,26.0975609756,-57,0.247826087,-133,-0.5782608696,134,-0.6536585366
10008397,14160.15625,4800,-2.942979767,2384,1.461679951,-11344,6.9552421827,-550,127.012195122,-2083,33.5365853659,-636,38.7804878049,-58,0.252173913,-138,-0.6,127,-0.6195121951
10009037,14179.6875,4304,-2.6388718578,3216,1.9717964439,-10912,6.6903740037,-550,127.012195122,-2083,33.5365853659,-636,38.7804878049,-54,0.2347826087,-142,-0.6173913043,125,-0.6097560976
10009677,14199.21875,3312,-2.0306560392,4048,2.4819129368,-10800,6.6217044758,-482,120.7317073171,-1980,29.3902439024,-777,47.3780487805,-52,0.2260869565,-143,-0.6217391304,119,-0.5804878049
10010317,14218.75,2928,-1.7952176579,4960,3.0410790926,-10336,6.3372164316,-770,115.9756097561,-1902,46.9512195122,-935,57.012195122,-53,0.2304347826,-140,-0.6086956522,114,-0.556097561
10010957,14238.28125,3072,-1.8835070509,5616,3.4432863274,-10000,6.1312078479,-770,115.9756097561,-1902,46.9512195122,-935,57.012195122,-48,0.2086956522,-145,-0.6304347826,111,-0.5414634146
10011597,14257.8125,2944,-1.8050275904,6384,3.9141630901,-9648,5.9153893317,-843,109.8780487805,-1802,51.4024390244,-1054,64.2682926829,-47,0.2043478261,-148,-0.6434782609,109,-0.5317073171
10012237,14277.34375,2880,-1.7657878602,7088,4.3458001226,-9472,5.8074800736,-843,109.8780487805,-1802,51.4024390244,-1054,64.2682926829,-45,0.1956521739,-146,-0.6347826087,106,-0.5170731707
10012877,14296.875,2832,-1.7363580625,7776,4.7676272226,-8912,5.4641324341,-851,102.1951219512,-1676,51.8902439024,-1148,70,-41,0.1782608696,-146,-0.6347826087,100,-0.487804878
10013517,14316.40625,2752,-1.6873083998,8016,4.9147762109,-8448,5.1796443899,-854,94.0243902439,-1542,52.0731707317,-1235,75.3048780488,-42,0.1826086957,-149,-0.647826087,99,-0.4829268293
10014157,14335.9375,2432,-1.4911097486,8512,5.2188841202,-8208,5.0324954016,-854,94.0243902439,-1542,52.0731707317,-1235,75.3048780488,-39,0.1695652174,-148,-0.6434782609,95,-0.4634146341
10014797,14355.46875,2320,-1.4224402207,9056,5.5524218271,-8048,4.934396076,-899,86.0975609756,-1412,54.8170731707,-1323,80.6707317073,-35,0.152173913,-148,-0.6434782609,91,-0.443902439
10015437,14375,2336,-1.4322501533,9232,5.6603310852,-7920,4.8559166156,-899,86.0975609756,-1412,54.8170731707,-1323,80.6707317073,-30,0.1304347826,-149,-0.647826087,89,-0.4341463415
10016077,14394.53125,2032,-1.2458614347,9712,5.9546290619,-7536,4.6204782342,-978,78.4146341463,-1286,59.6341463415,-1433,87.3780487805,-29,0.1260869565,-146,-0.6347826087,87,-0.4243902439
10016717,14414.0625,1840,-1.128142244,9856,6.0429184549,-7248,4.4438994482,-1075,70.487804878,-1156,65.5487804878,-1549,94.4512195122,-26,0.1130434783,-141,-0.6130434783,85,-0.4146341463
10017357,14433.59375,1744,-1.0692826487,10032,6.1508277131,-7088,4.3458001226,-1075,70.487804878,-1156,65.5487804878,-1549,94.4512195122,-22,0.0956521739,-145,-0.6304347826,84,-0.4097560976
10017997,14453.125,1616,-0.9908031882,10304,6.3175965665,-7152,4.3850398529,-1050,62.9268292683,-1032,64.0243902439,-1674,102.0731707317,-17,0.0739130435,-143,-0.6217391304,82,-0.4
10018637,14472.65625,1312,-0.8044144697,10560,6.4745554874,-6976,4.2771305947,-1050,62.9268292683,-1032,64.0243902439,-1674,102.0731707317,-17,0.0739130435,-137,-0.5956521739,81,-0.3951219512
10019277,14492.1875,800,-0.4904966278,10624,6.5137952177,-7008,4.2967504598,-1005,56.5243902439,-927,61.2804878049,-1818,110.8536585366,-12,0.052173913,-134,-0.5826086957,79,-0.3853658537
10019917,14511.71875,448,-0.2746781116,10464,6.4156958921,-6640,4.071122011,-1055,51.9512195122,-852,64.3292682927,-1984,120.9756097561,-8,0.0347826087,-136,-0.5913043478,81,-0.3951219512
10020557,14531.25,0,0,10288,6.307786634,-6352,3.894543225,-1055,51.9512195122,-852,64.3292682927,-1984,120.9756097561,-2,0.0086956522,-130,-0.5652173913,80,-0.3902439024
10021197,14550.78125,-1056,0.6474555487,10288,6.307786634,-6432,3.9435928878,-1030,49.6341463415,-814,62.8048780488,-2186,133.2926829268,0,0,-126,-0.547826087,78,-0.3804878049
10021837,14570.3125,-2112,1.2949110975,10640,6.5236051502,-6112,3.7473942367,-1323,48.2926829268,-792,80.6707317073,-2419,147.5,7,-0.0304347826,-120,-0.5217391304,78,-0.3804878049
10022477,14589.84375,-2272,1.3930104231,10544,6.4647455549,-5488,3.364806867,-1323,48.2926829268,-792,80.6707317073,-2419,147.5,10,-0.0434782609,-120,-0.5217391304,80,-0.3902439024
10023117,14609.375,-3040,1.8638871858,9856,6.0429184549,-4832,2.9625996321,-1746,47.1341463415,-773,106.4634146341,-2665,162.5,13,-0.0565217391,-110,-0.4782608696,79,-0.3853658537
10023757,14628.90625,-5552,3.4040465972,9408,5.7682403433,-4224,2.589822195,-1746,47.1341463415,-773,106.4634146341,-2665,162.5,12,-0.052173913,-107,-0.4652173913,83,-0.4048780488
10024397,14648.4375,-6608,4.0515021459,9472,5.8074800736,-4192,2.5702023299,-2664,39.6951219512,-651,162.4390243902,-2768,168.7804878049,17,-0.0739130435,-97,-0.4217391304,87,-0.4243902439
10025037,14667.96875,-4928,3.0214592275,10528,6.4549356223,-4512,2.766400981,-3271,24.8780487805,-408,199.4512195122,-2733,166.6463414634,20,-0.0869565217,-98,-0.4260869565,90,-0.4390243902
10025677,14687.5,-2528,1.549969344,10816,6.6315144083,-4752,2.9135499693,-3271,24.8780487805,-408,199.4512195122,-2733,166.6463414634,22,-0.0956521739,-91,-0.3956521739,100,-0.487804878
10026317,14707.03125,-1664,1.0202329859,10160,6.2293071735,-4608,2.8252605763,-2659,7.987804878,-131,162.1341463415,-2523,153.8414634146,23,-0.1,-88,-0.3826086957,103,-0.5024390244
10026957,14726.5625,-2864,1.7559779277,9824,6.0232985898,-4176,2.5603923973,-2659,7.987804878,-131,162.1341463415,-2523,153.8414634146,24,-0.1043478261,-82,-0.3565217391,109,-0.5317073171
10027597,14746.09375,-4080,2.501532802,9936,6.0919681177,-3920,2.4034334764,-2156,-8.0487804878,132,131.4634146341,-2275,138.7195121951,21,-0.0913043478,-73,-0.3173913043,111,-0.5414634146
10028237,14765.625,-4352,2.6683016554,9616,5.8957694666,-4336,2.6584917229,-2171,-24.0243902439,394,132.3780487805,-2148,130.9756097561,18,-0.0782608696,-67,-0.2913043478,118,-0.5756097561
10028877,14785.15625,-3968,2.4328632741,8864,5.4347026364,-4720,2.8939301042,-2171,-24.0243902439,394,132.3780487805,-2148,130.9756097561,18,-0.0782608696,-60,-0.2608695652,119,-0.5804878049
10029517,14804.6875,-3680,2.256284488,7488,4.5910484365,-4720,2.8939301042,-2205,-37.9268292683,622,134.4512195122,-2033,123.9634146341,17,-0.0739130435,-58,-0.252173913,126,-0.6146341463
10030157,14824.21875,-3680,2.256284488,6752,4.1397915389,-4640,2.8448804414,-2209,-53.1097560976,871,134.6951219512,-1994,121.5853658537,15,-0.0652173913,-53,-0.2304347826,128,-0.6243902439
10030797,14843.75,-3040,1.8638871858,6368,3.9043531576,-5088,3.119558553,-2209,-53.1097560976,871,134.6951219512,-1994,121.5853658537,8,-0.0347826087,-47,-0.2043478261,133,-0.6487804878
10031437,14863.28125,-2448,1.5009196812,4864,2.9822194972,-5936,3.6394849785,-1875,-70.1829268293,1151,114.3292682927,-1945,118.5975609756,8,-0.0347826087,-41,-0.1782608696,138,-0.6731707317
10032077,14882.8125,-2688,1.6480686695,3376,2.0698957695,-7136,4.3752299203,-1875,-70.1829268293,1151,114.3292682927,-1945,118.5975609756,5,-0.0217391304,-34,-0.147826087,140,-0.6829268293
10032717,14902.34375,-3392,2.079705702,3712,2.2759043532,-8144,4.9932556714,-1717,-77.6829268293,1274,104.6951219512,-1940,118.2926829268,0,0,-33,-0.1434782609,142,-0.6926829268
10033357,14921.875,-4128,2.5309625996,3376,2.0698957695,-8688,5.3267933783,-1949,-87.012195122,1427,118.8414634146,-1824,111.2195121951,-2,0.0086956522,-28,-0.1217391304,145,-0.7073170732
10033997,14941.40625,-4064,2.4917228694,2560,1.5695892091,-9584,5.8761496015,-1949,-87.012195122,1427,118.8414634146,-1824,111.2195121951,-7,0.0304347826,-25,-0.1086956522,147,-0.7170731707
10034637,14960.9375,-3760,2.3053341508,1952,1.1968117719,-10048,6.1606376456,-2074,-97.3170731707,1596,126.4634146341,-1632,99.512195122,-14,0.0608695652,-17,-0.0739130435,149,-0.7268292683
10035277,14980.46875,-3088,1.8933169834,1440,0.8828939301,-10560,6.4745554874,-2074,-97.3170731707,1596,126.4634146341,-1632,99.512195122,-18,0.0782608696,-11,-0.047826087,151,-0.7365853659
10035917,15000,-2288,1.4028203556,512,0.3139178418,-11920,7.3083997548,-2135,-110.9756097561,1820,130.1829268293,-1339,81.6463414634,-25,0.1086956522,-6,-0.0260869565,153,-0.7463414634
10036557,15019.53125,-2096,1.2851011649,-352,-0.2158185162,-13232,8.1128142244,-2017,-115.7317073171,1898,122.987804878,-974,59.3902439024,-27,0.1173913043,-5,-0.0217391304,155,-0.756097561
10037197,15039.0625,-1920,1.1771919068,-32,-0.0196198651,-13184,8.0833844267,-2017,-115.7317073171,1898,122.987804878,-974,59.3902439024,-33,0.1434782609,1,0.0043478261,155,-0.756097561
10037837,15058.59375,-512,0.3139178418,-608,-0.3727774372,-12576,7.7106069896,-2129,-133.1707317073,2184,129.8170731707,-618,37.6829268293,-36,0.1565217391,5,0.0217391304,152,-0.7414634146
10038477,15078.125,992,-0.6082158185,-2688,-1.6480686695,-13248,8.122624157,-2129,-133.1707317073,2184,129.8170731707,-618,37.6829268293,-43,0.1869565217,14,0.0608695652,153,-0.7463414634
10039117,15097.65625,1856,-1.1379521766,-3296,-2.0208461067,-15792,9.6824034335,-1525,-143.9634146341,2361,92.987804878,-254,15.487804878,-47,0.2043478261,15,0.0652173913,152,-0.7414634146
10039757,15117.1875,1216,-0.7455548743,-3344,-2.0502759044,-16960,10.3985285101,-842,-149.8170731707,2457,51.3414634146,11,-0.6707317073,-46,0.2,20,0.0869565217,150,-0.7317073171
10040397,15136.71875,400,-0.2452483139,-5168,-3.1686082158,-16048,9.8393623544,-842,-149.8170731707,2457,51.3414634146,11,-0.6707317073,-48,0.2086956522,25,0.1086956522,147,-0.7170731707
10041037,15156.25,-64,0.0392397302,-7168,-4.3948497854,-16800,10.3004291845,-960,-158.5975609756,2601,58.5365853659,147,-8.9634146341,-50,0.2173913043,23,0.1,146,-0.712195122
10041677,15175.78125,96,-0.0588595953,-7616,-4.669527897,-19008,11.6541998774,-1001,-161.6463414634,2651,61.0365853659,113,-6.8902439024,-52,0.2260869565,30,0.1304347826,142,-0.6926829268
10042317,15195.3125,1584,-0.9711833231,-8592,-5.267933783,-19920,12.2133660331,-1001,-161.6463414634,2651,61.0365853659,113,-6.8902439024,-54,0.2347826087,33,0.1434782609,139,-0.6780487805
10042957,15214.84375,2960,-1.814837523,-10688,-6.5530349479,-19200,11.7719190681,-858,-162.3170731707,2662,52.3170731707,188,-11.4634146341,-55,0.2391304348,37,0.1608695652,135,-0.6585365854
10043597,15234.375,2784,-1.7069282649,-12384,-7.5928877989,-18720,11.4776210914,-858,-162.3170731707,2662,52.3170731707,188,-11.4634146341,-57,0.247826087,40,0.1739130435,132,-0.643902439
10044237,15253.90625,2320,-1.4224402207,-12512,-7.6713672594,-19376,11.8798283262,-724,-160.6097560976,2634,44.1463414634,231,-14.0853658537,-58,0.252173913,41,0.1782608696,129,-0.6292682927
10044877,15273.4375,2304,-1.4126302882,-12912,-7.9166155733,-19056,11.683629675,-720,-159.1463414634,2610,43.9024390244,306,-18.6585365854,-60,0.2608695652,48,0.2086956522,123,-0.6
10045517,15292.96875,3120,-1.9129368486,-13664,-8.3776824034,-18880,11.5757204169,-720,-159.1463414634,2610,43.9024390244,306,-18.6585365854,-60,0.2608695652,42,0.1826086957,123,-0.6
10046157,15312.5,3232,-1.9816063765,-14656,-8.9858982219,-18592,11.3991416309,-670,-155.7317073171,2554,40.8536585366,341,-20.7926829268,-60,0.2608695652,47,0.2043478261,116,-0.5658536585
10046797,15332.03125,2544,-1.5597792765,-15360,-9.4175352544,-17760,10.889025138,-670,-155.7317073171,2554,40.8536585366,341,-20.7926829268,-59,0.2565217391,47,0.2043478261,112,-0.5463414634
10047437,15351.5625,1504,-0.9221336603,-15680,-9.6137339056,-17072,10.467198038,-721,-141.2195121951,2316,43.9634146341,263,-16.0365853659,-63,0.2739130435,49,0.2130434783,111,-0.5414634146
10048077,15371.09375,1232,-0.7553648069,-15936,-9.7706928265,-16192,9.9276517474,-1026,-126.4634146341,2074,62.5609756098,203,-12.3780487805,-62,0.2695652174,55,0.2391304348,106,-0.5170731707
10048717,15390.625,1072,-0.6572654813,-16096,-9.8687921521,-15264,9.3586756591,-1026,-126.4634146341,2074,62.5609756098,203,-12.3780487805,-61,0.2652173913,52,0.2260869565,104,-0.5073170732
10049357,15410.15625,1328,-0.8142244022,-16080,-9.8589822195,-14976,9.1820968731,-1242,-114.8170731707,1883,75.7317073171,203,-12.3780487805,-63,0.2739130435,52,0.2260869565,100,-0.487804878
10049997,15429.6875,1712,-1.0496627836,-16240,-9.9570815451,-14128,8.6621704476,-1179,-102.6219512195,1683,71.8902439024,255,-15.5487804878,-64,0.2782608696,57,0.247826087,98,-0.4780487805
10050637,15449.21875,1504,-0.9221336603,-16288,-9.9865113427,-12784,7.8381361128,-1179,-102.6219512195,1683,71.8902439024,255,-15.5487804878,-67,0.2913043478,58,0.252173913,92,-0.4487804878
10051277,15468.75,880,-0.5395462906,-15952,-9.780502759,-12032,7.3770692826,-1020,-89.0853658537,1461,62.1951219512,387,-23.5975609756,-65,0.2826086957,56,0.2434782609,94,-0.4585365854
10051917,15488.28125,1008,-0.6180257511,-15776,-9.6725935009,-11824,7.2495401594,-1020,-89.0853658537,1461,62.1951219512,387,-23.5975609756,-64,0.2782608696,62,0.2695652174,88,-0.4292682927
10052557,15507.8125,1360,-0.8338442673,-15712,-9.6333537707,-11248,6.8963825874,-1002,-73.5365853659,1206,61.0975609756,719,-43.8414634146,-63,0.2739130435,60,0.2608695652,87,-0.4243902439
10053197,15527.34375,768,-0.4708767627,-15504,-9.5058246475,-10528,6.4549356223,-1180,-58.5975609756,961,71.9512195122,1065,-64.9390243902,-62,0.2695652174,58,0.252173913,84,-0.4097560976
10053837,15546.875,0,0,-15504,-9.5058246475,-10272,6.2979767014,-1180,-58.5975609756,961,71.9512195122,1065,-64.9390243902,-62,0.2695652174,58,0.252173913,84,-0.4097560976
10054477,15566.40625,592,-0.3629675046,-15904,-9.7510729614,-10624,6.5137952177,-1937,-49.8170731707,817,118.1097560976,1473,-89.8170731707,-62,0.2695652174,56,0.2434782609,83,-0.4048780488
10055117,15585.9375,4288,-2.6290619252,-17168,-10.5260576334,-10736,6.5824647456,-1937,-49.8170731707,817,118.1097560976,1473,-89.8170731707,-56,0.2434782609,56,0.2434782609,82,-0.4
10055757,15605.46875,7472,-4.581238504,-17520,-10.7418761496,-10880,6.6707541386,-1983,-30.5487804878,501,120.9146341463,1638,-99.8780487805,-53,0.2304347826,55,0.2391304348,83,-0.4048780488
10056397,15625,7408,-4.5419987738,-16944,-10.3887185776,-11584,7.1023911711,-1570,-21.5853658537,354,95.7317073171,1725,-105.1829268293,-52,0.2260869565,54,0.2347826087,84,-0.4097560976
10057037,15644.53125,7552,-4.6302881668,-17184,-10.5358675659,-11840,7.259350092,-1570,-21.5853658537,354,95.7317073171,1725,-105.1829268293,-49,0.2130434783,54,0.2347826087,85,-0.4146341463
10057677,15664.0625,7904,-4.846106683,-16656,-10.2121397915,-12160,7.4555487431,-1741,-7.3170731707,120,106.1585365854,1406,-85.7317073171,-46,0.2,52,0.2260869565,84,-0.4097560976
10058317,15683.59375,8064,-4.9442060086,-16048,-9.8393623544,-11248,6.8963825874,-1741,-7.3170731707,120,106.1585365854,1406,-85.7317073171,-46,0.2,54,0.2347826087,86,-0.4195121951
10058957,15703.125,6720,-4.1201716738,-16208,-9.93746168,-9264,5.6799509503,-1824,14.2073170732,-233,111.2195121951,1068,-65.1219512195,-44,0.1913043478,54,0.2347826087,88,-0.4292682927
10059597,15722.65625,4704,-2.8841201717,-15488,-9.4960147149,-7168,4.3948497854,-2151,33.2926829268,-546,131.1585365854,837,-51.0365853659,-44,0.1913043478,53,0.2304347826,92,-0.4487804878
10060237,15742.1875,3552,-2.1778050276,-14512,-8.8976088289,-6688,4.1005518087,-2151,33.2926829268,-546,131.1585365854,837,-51.0365853659,-43,0.1869565217,48,0.2086956522,94,-0.4585365854
10060877,15761.71875,2048,-1.2556713673,-14624,-8.9662783568,-6192,3.7964438994,-2121,38.4756097561,-631,129.3292682927,1006,-61.3414634146,-40,0.1739130435,48,0.2086956522,97,-0.4731707317
10061517,15781.25,480,-0.2942979767,-15136,-9.2801961987,-4864,2.9822194972,-2498,41.8902439024,-687,152.3170731707,1284,-78.2926829268,-42,0.1826086957,49,0.2130434783,98,-0.4780487805
10062157,15800.78125,-896,0.5493562232,-15808,-9.692213366,-4016,2.4622930717,-2498,41.8902439024,-687,152.3170731707,1284,-78.2926829268,-39,0.1695652174,48,0.2086956522,103,-0.5024390244
10062797,15820.3125,-1552,0.951563458,-16368,-10.0355610055,-4640,2.8448804414,-2813,44.4512195122,-729,171.5243902439,1611,-98.2317073171,-40,0.1739130435,45,0.1956521739,107,-0.5219512195
10063437,15839.84375,-1552,0.951563458,-16912,-10.3690987124,-4864,2.9822194972,-2813,44.4512195122,-729,171.5243902439,1611,-98.2317073171,-40,0.1739130435,44,0.1913043478,113,-0.5512195122
10064077,15859.375,-1632,1.0006131208,-18080,-11.0852237891,-5632,3.45309626,-2961,43.5365853659,-714,180.5487804878,1837,-112.012195122,-38,0.1652173913,43,0.1869565217,114,-0.556097561
10064717,15878.90625,-2064,1.2654812998,-18624,-11.418761496,-7040,4.316370325,-2724,44.5731707317,-731,166.0975609756,1987,-121.1585365854,-37,0.1608695652,39,0.1695652174,117,-0.5707317073
10065357,15898.4375,-1968,1.2066217045,-19216,-11.7817290006,-8432,5.1698344574,-2724,44.5731707317,-731,166.0975609756,1987,-121.1585365854,-39,0.1695652174,35,0.152173913,121,-0.5902439024
10065997,15917.96875,-1552,0.951563458,-19856,-12.1741263029,-9968,6.1115879828,-2147,45.3658536585,-744,130.9146341463,2198,-134.0243902439,-38,0.1652173913,33,0.1434782609,125,-0.6097560976
10066637,15937.5,-1808,1.1085223789,-20224,-12.3997547517,-11296,6.925812385,-2147,45.3658536585,-744,130.9146341463,2198,-134.0243902439,-39,0.1695652174,37,0.1608695652,126,-0.6146341463
10067277,15957.03125,-2320,1.4224402207,-20992,-12.8706315144,-12208,7.4849785408,-1467,51.7073170732,-848,89.4512195122,2466,-150.3658536585,-36,0.1565217391,31,0.1347826087,129,-0.6292682927
10067917,15976.5625,-2912,1.7854077253,-21952,-13.4592274678,-13216,8.1030042918,-1135,61.3414634146,-1006,69.2073170732,2658,-162.0731707317,-33,0.1434782609,28,0.1217391304,131,-0.6390243902
10068557,15996.09375,-3712,2.2759043532,-22384,-13.7240956468,-13488,8.2697731453,-1135,61.3414634146,-1006,69.2073170732,2658,-162.0731707317,-32,0.1391304348,22,0.0956521739,136,-0.6634146341
10069197,16015.625,-3664,2.2464745555,-22688,-13.9104843654,-13536,8.299202943,-1427,75.487804878,-1238,87.012195122,2733,-166.6463414634,-29,0.1260869565,15,0.0652173913,139,-0.6780487805
10069837,16035.15625,-2288,1.4028203556,-23232,-14.2440220723,-14160,8.6817903127,-1427,75.487804878,-1238,87.012195122,2733,-166.6463414634,-29,0.1260869565,8,0.0347826087,143,-0.6975609756
10070477,16054.6875,-1520,0.9319435929,-23440,-14.3715511956,-14080,8.6327406499,-1644,91.2804878049,-1497,100.243902439,2697,-164.4512195122,-29,0.1260869565,7,0.0304347826,144,-0.7024390244
10071117,16074.21875,-1376,0.8436541999,-23072,-14.1459227468,-13488,8.2697731453,-1695,108.5975609756,-1781,103.3536585366,2564,-156.3414634146,-28,0.1217391304,1,0.0043478261,149,-0.7268292683
10071757,16093.75,-672,0.4120171674,-22272,-13.6554261189,-13696,8.3973022685,-1695,108.5975609756,-1781,103.3536585366,2564,-156.3414634146,-28,0.1217391304,-4,-0.0173913043,152,-0.7414634146
10072397,16113.28125,-416,0.2550582465,-21792,-13.3611281422,-14528,8.9074187615,-1715,122.6219512195,-2011,104.5731707317,2310,-140.8536585366,-30,0.1304347826,-11,-0.047826087,159,-0.7756097561
10073037,16132.8125,-304,0.1863887186,-21456,-13.1551195586,-14368,8.8093194359,-1789,135,-2214,109.0853658537,2108,-128.5365853659,-31,0.1347826087,-15,-0.0652173913,160,-0.7804878049
10073677,16152.34375,1168,-0.7161250766,-20960,-12.8510116493,-14848,9.1036174126,-1789,135,-2214,109.0853658537,2108,-128.5365853659,-34,0.147826087,-23,-0.1,165,-0.8048780488
10074317,16171.875,2608,-1.5990190067,-20240,-12.4095646842,-15856,9.7216431637,-1240,150.7317073171,-2472,75.6097560976,1862,-113.5365853659,-38,0.1652173913,-30,-0.1304347826,166,-0.8097560976
10074957,16191.40625,1776,-1.0889025138,-19408,-11.8994481913,-15952,9.780502759,-1240,150.7317073171,-2472,75.6097560976,1862,-113.5365853659,-39,0.1695652174,-39,-0.1695652174,169,-0.8243902439
10075597,16210.9375,1104,-0.6768853464,-18688,-11.4580012262,-16288,9.9865113427,-788,161.0975609756,-2642,48.0487804878,1746,-106.4634146341,-38,0.1652173913,-44,-0.1913043478,170,-0.8292682927
10076237,16230.46875,1744,-1.0692826487,-18256,-11.1931330472,-16144,9.8982219497,-830,172.0731707317,-2822,50.6097560976,1454,-88.6585365854,-42,0.1826086957,-55,-0.2391304348,170,-0.8292682927
10076877,16250,2192,-1.3439607603,-17616,-10.8007357449,-15344,9.4077253219,-830,172.0731707317,-2822,50.6097560976,1454,-88.6585365854,-43,0.1869565217,-58,-0.252173913,172,-0.8390243902
10077517,16269.53125,1664,-1.0202329859,-16080,-9.8589822195,-14384,8.8191293685,-837,182.012195122,-2985,51.0365853659,1104,-67.3170731707,-48,0.2086956522,-65,-0.2826086957,171,-0.8341463415
10078157,16289.0625,2496,-1.5303494788,-14496,-8.8877988964,-13872,8.5052115267,-837,182.012195122,-2985,51.0365853659,1104,-67.3170731707,-48,0.2086956522,-70,-0.3043478261,168,-0.8195121951
10078797,16308.59375,3120,-1.9129368486,-13088,-8.0245248314,-13760,8.4365419988,-914,186.8902439024,-3065,55.7317073171,725,-44.2073170732,-51,0.2217391304,-84,-0.3652173913,170,-0.8292682927
10079437,16328.125,2880,-1.7657878602,-12064,-7.3966891478,-13648,8.3678724709,-753,184.512195122,-3026,45.9146341463,532,-32.4390243902,-54,0.2347826087,-84,-0.3652173913,168,-0.8195121951
10080077,16347.65625,2448,-1.5009196812,-10832,-6.6413243409,-13008,7.9754751686,-753,184.512195122,-3026,45.9146341463,532,-32.4390243902,-56,0.2434782609,-93,-0.4043478261,164,-0.8
10080717,16367.1875,3072,-1.8835070509,-9328,-5.7191906806,-12832,7.8675659105,-932,184.6951219512,-3029,56.8292682927,343,-20.9146341463,-57,0.247826087,-103,-0.447826087,163,-0.7951219512
10081357,16386.71875,3872,-2.3740036787,-7856,-4.8166768853,-12336,7.5634580012,-836,180.1219512195,-2954,50.9756097561,230,-14.0243902439,-60,0.2608695652,-105,-0.4565217391,157,-0.7658536585
10081997,16406.25,3552,-2.1778050276,-6608,-4.0515021459,-11504,7.0533415083,-836,180.1219512195,-2954,50.9756097561,230,-14.0243902439,-62,0.2695652174,-110,-0.4782608696,154,-0.7512195122
10082637,16425.78125,3408,-2.0895156346,-5216,-3.1980380135,-10848,6.6511342735,-967,172.8048780488,-2834,58.9634146341,-2,0.1219512195,-62,0.2695652174,-120,-0.5217391304,149,-0.7268292683
10083277,16445.3125,4224,-2.589822195,-3792,-2.3249540159,-10656,6.5334150828,-967,172.8048780488,-2834,58.9634146341,-2,0.1219512195,-64,0.2782608696,-125,-0.5434782609,146,-0.712195122
10083917,16464.84375,4512,-2.766400981,-2432,-1.4911097486,-10864,6.660944206,-1086,163.8414634146,-2687,66.2195121951,-275,16.7682926829,-64,0.2782608696,-127,-0.552173913,143,-0.6975609756
10084557,16484.375,4384,-2.6879215205,-1072,-0.6572654813,-10016,6.1410177805,-1273,154.8170731707,-2539,77.6219512195,-575,35.0609756098,-67,0.2913043478,-132,-0.5739130435,137,-0.6682926829
10085197,16503.90625,4176,-2.5603923973,-144,-0.088289393,-9520,5.8369098712,-1273,154.8170731707,-2539,77.6219512195,-575,35.0609756098,-70,0.3043478261,-138,-0.6,134,-0.6536585366
10085837,16523.4375,4352,-2.6683016554,1168,0.7161250766,-9440,5.7878602085,-1446,146.6463414634,-2405,88.1707317073,-884,53.9024390244,-68,0.2956521739,-140,-0.6086956522,127,-0.6195121951
10086477,16542.96875,4992,-3.0606989577,2496,1.5303494788,-8656,5.3071735132,-1446,146.6463414634,-2405,88.1707317073,-884,53.9024390244,-66,0.2869565217,-139,-0.6043478261,123,-0.6
10087117,16562.5,5248,-3.2176578786,3024,1.8540772532,-7520,4.6106683017,-1424,138.1097560976,-2265,86.8292682927,-1135,69.2073170732,-63,0.2739130435,-148,-0.6434782609,118,-0.5756097561
10087757,16582.03125,5392,-3.3059472716,3744,2.2955242183,-7536,4.6204782342,-1000,126.0975609756,-2068,60.9756097561,-1324,80.7317073171,-62,0.2695652174,-145,-0.6304347826,115,-0.5609756098
10088397,16601.5625,5088,-3.119558553,4544,2.7860208461,-7312,4.4831391784,-1000,126.0975609756,-2068,60.9756097561,-1324,80.7317073171,-59,0.2565217391,-149,-0.647826087,107,-0.5219512195
10089037,16621.09375,4080,-2.501532802,5568,3.4138565297,-7488,4.5910484365,-689,115.5487804878,-1895,42.012195122,-1437,87.6219512195,-55,0.2391304348,-152,-0.6608695652,106,-0.5170731707
10089677,16640.625,3104,-1.903126916,6384,3.9141630901,-7584,4.6499080319,-689,115.5487804878,-1895,42.012195122,-1437,87.6219512195,-52,0.2260869565,-154,-0.6695652174,100,-0.487804878
10090317,16660.15625,2832,-1.7363580625,6992,4.2869405273,-7616,4.669527897,-891,107.1341463415,-1757,54.3292682927,-1526,93.0487804878,-49,0.2130434783,-150,-0.652173913,97,-0.4731707317
10090957,16679.6875,2768,-1.6971183323,7472,4.581238504,-6688,4.1005518087,-1146,97.6219512195,-1601,69.8780487805,-1641,100.0609756098,-45,0.1956521739,-152,-0.6608695652,91,-0.443902439
10091597,16699.21875,2128,-1.30472103,7872,4.8264868179,-6288,3.8553034948,-1146,97.6219512195,-1601,69.8780487805,-1641,100.0609756098,-41,0.1782608696,-152,-0.6608695652,91,-0.443902439
10092237,16718.75,2336,-1.4322501533,8432,5.1698344574,-5712,3.5021459227,-1370,85.3048780488,-1399,83.5365853659,-1776,108.2926829268,-34,0.147826087,-152,-0.6608695652,87,-0.4243902439
10092877,16738.28125,2880,-1.7657878602,9072,5.5622317597,-5200,3.1882280809,-1220,70.9146341463,-1163,74.3902439024,-1864,113.6585365854,-33,0.1434782609,-147,-0.6391304348,84,-0.4097560976
10093517,16757.8125,2784,-1.7069282649,9536,5.8467198038,-5216,3.1980380135,-1220,70.9146341463,-1163,74.3902439024,-1864,113.6585365854,-27,0.1173913043,-145,-0.6304347826,82,-0.4
10094157,16777.34375,2544,-1.5597792765,9760,5.9840588596,-5392,3.3059472716,-940,57.8658536585,-949,57.3170731707,-1933,117.8658536585,-26,0.1130434783,-146,-0.6347826087,82,-0.4
10094797,16796.875,2144,-1.3145309626,9728,5.9644389945,-5728,3.5119558553,-940,57.8658536585,-949,57.3170731707,-1933,117.8658536585,-19,0.0826086957,-143,-0.6217391304,81,-0.3951219512
10095437,16816.40625,1216,-0.7455548743,9712,5.9546290619,-5840,3.5806253832,-771,47.6219512195,-781,47.012195122,-1979,120.6707317073,-15,0.0652173913,-140,-0.6086956522,79,-0.3853658537
10096077,16835.9375,288,-0.176578786,9920,6.0821581852,-6080,3.7277743716,-864,39.756097561,-652,52.6829268293,-2048,124.8780487805,-10,0.0434782609,-137,-0.5956521739,78,-0.3804878049
10096717,16855.46875,288,-0.176578786,9952,6.1017780503,-6160,3.7768240343,-864,39.756097561,-652,52.6829268293,-2048,124.8780487805,-9,0.0391304348,-130,-0.5652173913,77,-0.3756097561
10097357,16875,496,-0.3041079093,9856,6.0429184549,-6272,3.8454935622,-785,32.1951219512,-528,47.8658536585,-2095,127.743902439,-2,0.0086956522,-126,-0.547826087,77,-0.3756097561
10097997,16894.53125,-464,0.2844880441,10336,6.3372164316,-6592,4.0416922134,-785,32.1951219512,-528,47.8658536585,-2095,127.743902439,1,-0.0043478261,-128,-0.5565217391,78,-0.3804878049
10098637,16914.0625,-2224,1.3635806254,10784,6.6118945432,-7072,4.3359901901,-652,25.7317073171,-422,39.756097561,-2186,133.2926829268,8,-0.0347826087,-123,-0.5347826087,78,-0.3804878049
10099277,16933.59375,-3264,2.0012262416,10912,6.6903740037,-7360,4.5125689761,-845,25.5487804878,-419,51.5243902439,-2350,143.2926829268,7,-0.0304347826,-115,-0.5,76,-0.3707317073
10099917,16953.125,-3520,2.1581851625,10608,6.5039852851,-6992,4.2869405273,-845,25.5487804878,-419,51.5243902439,-2350,143.2926829268,12,-0.052173913,-111,-0.4826086957,79,-0.3853658537
10100557,16972.65625,-4128,2.5309625996,10240,6.2783568363,-6016,3.6885346413,-1072,20.5487804878,-337,65.3658536585,-2495,152.1341463415,14,-0.0608695652,-112,-0.4869565217,80,-0.3902439024
10101197,16992.1875,-4928,3.0214592275,9776,5.9938687922,-5968,3.6591048437,-1072,20.5487804878,-337,65.3658536585,-2495,152.1341463415,20,-0.0869565217,-104,-0.452173913,83,-0.4048780488
10101837,17011.71875,-5728,3.5119558553,8960,5.4935622318,-5984,3.6689147762,-1265,14.3292682927,-235,77.1341463415,-2562,156.2195121951,21,-0.0913043478,-98,-0.4260869565,83,-0.4048780488
10102477,17031.25,-6112,3.7473942367,8416,5.1600245248,-5840,3.5806253832,-1544,9.3292682927,-153,94.1463414634,-2571,156.7682926829,24,-0.1043478261,-90,-0.3913043478,87,-0.4243902439
10103117,17050.78125,-5744,3.5217657879,8272,5.0717351318,-4912,3.0116492949,-1544,9.3292682927,-153,94.1463414634,-2571,156.7682926829,24,-0.1043478261,-88,-0.3826086957,88,-0.4292682927
10103757,17070.3125,-5616,3.4432863274,8080,4.9540159411,-4032,2.4721030043,-1898,-1.8902439024,31,115.7317073171,-2589,157.8658536585,25,-0.1086956522,-79,-0.3434782609,94,-0.4585365854
10104397,17089.84375,-5472,3.3549969344,7280,4.4635193133,-3840,2.3543838136,-1775,-16.4634146341,270,108.2317073171,-2481,151.2804878049,27,-0.1173913043,-75,-0.3260869565,97,-0.4731707317
10105037,17109.375,-4976,3.0508890251,6096,3.7375843041,-4016,2.4622930717,-1775,-16.4634146341,270,108.2317073171,-2481,151.2804878049,27,-0.1173913043,-69,-0.3,101,-0.4926829268
10105677,17128.90625,-5136,3.1489883507,4656,2.854690374,-2832,1.7363580625,-1563,-29.1463414634,478,95.3048780488,-2418,147.4390243902,25,-0.1086956522,-66,-0.2869565217,104,-0.5073170732
10106317,17148.4375,-6000,3.6787247088,4224,2.589822195,-976,0.598405886,-1563,-29.1463414634,478,95.3048780488,-2418,147.4390243902,24,-0.1043478261,-57,-0.247826087,106,-0.5170731707
10106957,17167.96875,-6576,4.0318822808,5408,3.3157572042,-560,0.3433476395,-1471,-46.5243902439,763,89.6951219512,-2361,143.9634146341,22,-0.0956521739,-49,-0.2130434783,109,-0.5317073171
10107597,17187.5,-5856,3.5904353158,5904,3.6198651134,-2080,1.2752912324,-1458,-74.9390243902,1229,88.9024390244,-2292,139.756097561,23,-0.1,-43,-0.1869565217,112,-0.5463414634
10108237,17207.03125,-4208,2.5800122624,3728,2.2857142857,-3664,2.2464745555,-1458,-74.9390243902,1229,88.9024390244,-2292,139.756097561,21,-0.0913043478,-38,-0.1652173913,116,-0.5658536585
10108877,17226.5625,-3952,2.4230533415,736,0.4512568976,-4928,3.0214592275,-1377,-90.0609756098,1477,83.9634146341,-2238,136.4634146341,18,-0.0782608696,-31,-0.1347826087,120,-0.5853658537
10109517,17246.09375,-5520,3.3844267321,-560,-0.3433476395,-5824,3.5708154506,-1377,-90.0609756098,1477,83.9634146341,-2238,136.4634146341,15,-0.0652173913,-24,-0.1043478261,119,-0.5804878049
10110157,17265.625,-6528,4.0024524831,288,0.176578786,-7312,4.4831391784,-1548,-100.9146341463,1655,94.3902439024,-2205,134.4512195122,12,-0.052173913,-16,-0.0695652174,122,-0.5951219512
10110797,17285.15625,-6192,3.7964438994,-112,-0.0686695279,-8416,5.1600245248,-1855,-115.9146341463,1901,113.1097560976,-1957,119.3292682927,10,-0.0434782609,-18,-0.0782608696,126,-0.6146341463
10111437,17304.6875,-5600,3.4334763948,-1552,-0.951563458,-8928,5.4739423666,-1855,-115.9146341463,1901,113.1097560976,-1957,119.3292682927,4,-0.0173913043,-10,-0.0434782609,128,-0.6243902439
10112077,17324.21875,-4672,2.8645003066,-1936,-1.1870018394,-11424,7.0042918455,-1993,-128.7195121951,2111,121.5243902439,-1827,111.4024390244,2,-0.0086956522,-9,-0.0391304348,131,-0.6390243902
10112717,17343.75,-3280,2.0110361741,-3360,-2.0600858369,-13472,8.2599632128,-1477,-140.243902439,2300,90.0609756098,-1548,94.3902439024,-5,0.0217391304,4,0.0173913043,130,-0.6341463415
10113357,17363.28125,-3168,1.9423666462,-6000,-3.6787247088,-14912,9.1428571429,-1477,-140.243902439,2300,90.0609756098,-1548,94.3902439024,-10,0.0434782609,11,0.047826087,131,-0.6390243902
10113997,17382.8125,-4816,2.9527896996,-7168,-4.3948497854,-16720,10.2513795218,-1225,-138.6585365854,2274,74.6951219512,-1410,85.9756097561,-14,0.0608695652,15,0.0652173913,131,-0.6390243902
10114637,17402.34375,-5600,3.4334763948,-6112,-3.7473942367,-18048,11.065603924,-1225,-138.6585365854,2274,74.6951219512,-1410,85.9756097561,-17,0.0739130435,16,0.0695652174,130,-0.6341463415
10115277,17421.875,-3632,2.2268546904,-6448,-3.9534028204,-17952,11.0067443286,-1428,-130.3658536585,2138,87.0731707317,-1259,76.7682926829,-21,0.0913043478,18,0.0782608696,132,-0.643902439
10115917,17441.40625,-1664,1.0202329859,-8864,-5.4347026364,-18016,11.0459840589,-570,-129.0853658537,2117,34.756097561,-1015,61.8902439024,-27,0.1173913043,27,0.1173913043,129,-0.6292682927
10116557,17460.9375,-3232,1.9816063765,-10016,-6.1410177805,-18080,11.0852237891,-570,-129.0853658537,2117,34.756097561,-1015,61.8902439024,-29,0.1260869565,31,0.1347826087,126,-0.6146341463
10117197,17480.46875,-6064,3.717964439,-9680,-5.9350091968,-17728,10.8694052728,-767,-129.2073170732,2119,46.7682926829,-980,59.756097561,-27,0.1173913043,29,0.1260869565,126,-0.6146341463
10117837,17500,-5536,3.3942366646,-9824,-6.0232985898,-16896,10.3592887799,-767,-129.2073170732,2119,46.7682926829,-980,59.756097561,-34,0.147826087,38,0.1652173913,124,-0.6048780488
10118477,17519.53125,-3056,1.8736971183,-10768,-6.6020846107,-16608,10.1827099939,-1781,-133.4756097561,2189,108.5975609756,-945,57.6219512195,-36,0.1565217391,39,0.1695652174,120,-0.5853658537
10119117,17539.0625,-960,0.5885959534,-12160,-7.4555487431,-17520,10.7418761496,-1870,-139.756097561,2292,114.0243902439,-679,41.4024390244,-40,0.1739130435,38,0.1652173913,121,-0.5902439024
10119757,17558.59375,336,-0.2060085837,-12976,-7.9558553035,-17856,10.9478847333,-1870,-139.756097561,2292,114.0243902439,-679,41.4024390244,-44,0.1913043478,44,0.1913043478,119,-0.5804878049
10120397,17578.125,1328,-0.8142244022,-13776,-8.4463519313,-17504,10.732066217,-1706,-142.6829268293,2340,104.0243902439,-396,24.1463414634,-47,0.2043478261,46,0.2,117,-0.5707317073
10121037,17597.65625,1424,-0.8730839975,-14800,-9.074187615,-17264,10.5849172287,-1706,-142.6829268293,2340,104.0243902439,-396,24.1463414634,-48,0.2086956522,47,0.2043478261,113,-0.5512195122
10121677,17617.1875,1600,-0.9809932557,-15856,-9.7216431637,-17584,10.7811158798,-1488,-140.3658536585,2302,90.7317073171,-263,16.0365853659,-51,0.2217391304,46,0.2,111,-0.5414634146
10122317,17636.71875,1360,-0.8338442673,-16240,-9.9570815451,-17792,10.9086450031,-1684,-129.8780487805,2130,102.6829268293,-316,19.2682926829,-55,0.2391304348,52,0.2260869565,106,-0.5170731707
10122957,17656.25,1792,-1.0987124464,-16576,-10.1630901288,-18304,11.2225628449,-1684,-129.8780487805,2130,102.6829268293,-316,19.2682926829,-54,0.2347826087,50,0.2173913043,106,-0.5170731707
10123597,17675.78125,2640,-1.6186388719,-17088,-10.4770079706,-18800,11.5266707541,-1796,-119.4512195122,1959,109.512195122,-320,19.512195122,-58,0.252173913,54,0.2347826087,103,-0.5024390244
10124237,17695.3125,2800,-1.7167381974,-17056,-10.4573881055,-18192,11.153893317,-1634,-100.3048780488,1645,99.6341463415,-364,22.1951219512,-58,0.252173913,56,0.2434782609,100,-0.487804878
10124877,17714.84375,2416,-1.4812998161,-16832,-10.3200490497,-16928,10.378908645,-1634,-100.3048780488,1645,99.6341463415,-364,22.1951219512,-62,0.2695652174,57,0.247826087,97,-0.4731707317
10125517,17734.375,2592,-1.5892090742,-16944,-10.3887185776,-15664,9.603923973,-1637,-82.8658536585,1359,99.8170731707,-381,23.2317073171,-65,0.2826086957,55,0.2391304348,96,-0.4682926829
