Shimmer,Shimmer,Shimmer,Shimmer,Shimmer,Shimmer,Shimmer,Shimmer,Shimmer,Shimmer,Shimmer,Shimmer,Shimmer,Shimmer,Shimmer,Shimmer,Shimmer,Shimmer,Shimmer,Shimmer
Timestamp,Timestamp,Wide Range Accelerometer X,Wide Range Accelerometer X,Wide Range Accelerometer Y,Wide Range Accelerometer Y,Wide Range Accelerometer Z,Wide Range Accelerometer Z,Gyroscope X,Gyroscope X,Gyroscope Y,Gyroscope Y,Gyroscope Z,Gyroscope Z,Magnetometer X,Magnetometer X,Magnetometer Y,Magnetometer Y,Magnetometer Z,Magnetometer Z
RAW,CAL,RAW,CAL,RAW,CAL,RAW,CAL,RAW,CAL,RAW,CAL,RAW,CAL,RAW,CAL,RAW,CAL,RAW,CAL
no units,mSecs,no units,m/(sec^2),no units,m/(sec^2),no units,m/(sec^2),no units,deg/sec,no units,deg/sec,no units,deg/sec,no units,local,no units,local,no units,local
14749470,9687.5,-3296,2.0208461067,240,0.1471489884,-15728,9.6431637032,0,2.987804878,-49,0,5,-0.3048780488,4,-0.0173913043,-51,-0.2217391304,142,-0.6926829268
14750110,9707.03125,-3312,2.0306560392,240,0.1471489884,-15664,9.603923973,0,2.987804878,-49,0,5,-0.3048780488,3,-0.0130434783,-48,-0.2086956522,140,-0.6829268293
14750750,9726.5625,-3248,1.991416309,288,0.176578786,-15744,9.6529736358,-19,3.1707317073,-52,1.1585365854,11,-0.6707317073,4,-0.0173913043,-49,-0.2130434783,141,-0.687804878
14751390,9746.09375,-3312,2.0306560392,288,0.176578786,-15792,9.6824034335,-19,3.1707317073,-52,1.1585365854,11,-0.6707317073,2,-0.0086956522,-52,-0.2260869565,141,-0.687804878
14752030,9765.625,-3280,2.0110361741,320,0.1961986511,-15792,9.6824034335,-6,2.9268292683,-48,0.3658536585,7,-0.4268292683,2,-0.0086956522,-53,-0.2304347826,141,-0.687804878
14752670,9785.15625,-3248,1.991416309,288,0.176578786,-15680,9.6137339056,-9,2.8048780488,-46,0.5487804878,5,-0.3048780488,0,0,-46,-0.2,140,-0.6829268293
14753310,9804.6875,-3312,2.0306560392,320,0.1961986511,-15728,9.6431637032,-9,2.8048780488,-46,0.5487804878,5,-0.3048780488,2,-0.0086956522,-52,-0.2260869565,140,-0.6829268293
14753950,9824.21875,-3232,1.9816063765,320,0.1961986511,-15744,9.6529736358,4,2.3780487805,-39,-0.243902439,12,-0.7317073171,2,-0.0086956522,-48,-0.2086956522,141,-0.687804878
14754590,9843.75,-3312,2.0306560392,272,0.1667688535,-15744,9.6529736358,4,2.3780487805,-39,-0.243902439,12,-0.7317073171,2,-0.0086956522,-46,-0.2,139,-0.6780487805
14755230,9863.28125,-3312,2.0306560392,272,0.1667688535,-15760,9.6627835684,-6,2.1951219512,-36,0.3658536585,11,-0.6707317073,1,-0.0043478261,-49,-0.2130434783,141,-0.687804878
14755870,9882.8125,-3280,2.0110361741,256,0.1569589209,-15760,9.6627835684,-1,2.1951219512,-36,0.0609756098,17,-1.0365853659,1,-0.0043478261,-47,-0.2043478261,140,-0.6829268293
14756510,9902.34375,-3168,1.9423666462,320,0.1961986511,-15792,9.6824034335,-1,2.1951219512,-36,0.0609756098,17,-1.0365853659,2,-0.0086956522,-50,-0.2173913043,140,-0.6829268293
14757150,9921.875,-3264,2.0012262416,256,0.1569589209,-15888,9.7412630288,13,1.9512195122,-32,-0.7926829268,19,-1.1585365854,2,-0.0086956522,-45,-0.1956521739,139,-0.6780487805
14757790,9941.40625,-3280,2.0110361741,304,0.1863887186,-15920,9.7608828939,-23,2.1951219512,-36,1.4024390244,10,-0.6097560976,4,-0.0173913043,-51,-0.2217391304,142,-0.6926829268
14758430,9960.9375,-3152,1.9325567137,272,0.1667688535,-15920,9.7608828939,-23,2.1951219512,-36,1.4024390244,10,-0.6097560976,4,-0.0173913043,-49,-0.2130434783,140,-0.6829268293
14759070,9980.46875,-3152,1.9325567137,288,0.176578786,-15888,9.7412630288,-18,2.6829268293,-44,1.0975609756,11,-0.6707317073,3,-0.0130434783,-49,-0.2130434783,140,-0.6829268293
14759710,10000,-3184,1.9521765788,176,0.1079092581,-15936,9.7706928265,-18,2.6829268293,-44,1.0975609756,11,-0.6707317073,3,-0.0130434783,-50,-0.2173913043,142,-0.6926829268
14760350,10019.53125,-3120,1.9129368486,288,0.176578786,-15856,9.7216431637,-21,3.1097560976,-51,1.2804878049,3,-0.1829268293,1,-0.0043478261,-51,-0.2217391304,141,-0.687804878
14760990,10039.0625,-3104,1.903126916,288,0.176578786,-15824,9.7020232986,-9,3.1097560976,-51,0.5487804878,1,-0.0609756098,4,-0.0173913043,-50,-0.2173913043,141,-0.687804878
14761630,10058.59375,-3072,1.8835070509,256,0.1569589209,-15712,9.6333537707,-9,3.1097560976,-51,0.5487804878,1,-0.0609756098,0,0,-45,-0.1956521739,140,-0.6829268293
14762270,10078.125,-3088,1.8933169834,224,0.1373390558,-15776,9.6725935009,-7,2.8658536585,-47,0.4268292683,-2,0.1219512195,2,-0.0086956522,-51,-0.2217391304,140,-0.6829268293
14762910,10097.65625,-3152,1.9325567137,208,0.1275291232,-15776,9.6725935009,-7,2.8658536585,-47,0.4268292683,-2,0.1219512195,1,-0.0043478261,-46,-0.2,141,-0.687804878
14763550,10117.1875,-3216,1.9717964439,192,0.1177191907,-15808,9.692213366,3,2.5,-41,-0.1829268293,0,0,1,-0.0043478261,-46,-0.2,139,-0.6780487805
14764190,10136.71875,-3200,1.9619865113,240,0.1471489884,-15792,9.6824034335,-12,2.5,-41,0.7317073171,-1,0.0609756098,1,-0.0043478261,-51,-0.2217391304,141,-0.687804878
14764830,10156.25,-3136,1.9227467811,288,0.176578786,-15840,9.7118332311,-12,2.5,-41,0.7317073171,-1,0.0609756098,3,-0.0130434783,-46,-0.2,141,-0.687804878
14765470,10175.78125,-3152,1.9325567137,272,0.1667688535,-15856,9.7216431637,-20,2.6219512195,-43,1.2195121951,0,0,1,-0.0043478261,-47,-0.2043478261,141,-0.687804878
14766110,10195.3125,-3152,1.9325567137,192,0.1177191907,-15776,9.6725935009,-20,2.6219512195,-43,1.2195121951,0,0,2,-0.0086956522,-44,-0.1913043478,138,-0.6731707317
14766750,10214.84375,-3152,1.9325567137,208,0.1275291232,-15872,9.7314530963,-8,2.8658536585,-47,0.487804878,-1,0.0609756098,3,-0.0130434783,-52,-0.2260869565,143,-0.6975609756
14767390,10234.375,-3120,1.9129368486,176,0.1079092581,-15744,9.6529736358,-4,2.8658536585,-47,0.243902439,-2,0.1219512195,3,-0.0130434783,-48,-0.2086956522,141,-0.687804878
14768030,10253.90625,-3184,1.9521765788,208,0.1275291232,-15760,9.6627835684,-4,2.8658536585,-47,0.243902439,-2,0.1219512195,3,-0.0130434783,-49,-0.2130434783,140,-0.6829268293
14768670,10273.4375,-3104,1.903126916,160,0.0980993256,-15744,9.6529736358,-20,2.987804878,-49,1.2195121951,-6,0.3658536585,1,-0.0043478261,-52,-0.2260869565,141,-0.687804878
14769310,10292.96875,-3040,1.8638871858,112,0.0686695279,-15760,9.6627835684,-12,2.5,-41,0.7317073171,-3,0.1829268293,2,-0.0086956522,-51,-0.2217391304,142,-0.6926829268
14769950,10312.5,-3024,1.8540772532,128,0.0784794605,-15728,9.6431637032,-12,2.5,-41,0.7317073171,-3,0.1829268293,3,-0.0130434783,-49,-0.2130434783,141,-0.687804878
14770590,10332.03125,-3040,1.8638871858,160,0.0980993256,-15792,9.6824034335,-17,2.6829268293,-44,1.0365853659,-5,0.3048780488,4,-0.0173913043,-50,-0.2173913043,141,-0.687804878
14771230,10351.5625,-3024,1.8540772532,128,0.0784794605,-15872,9.7314530963,-17,2.6829268293,-44,1.0365853659,-5,0.3048780488,2,-0.0086956522,-52,-0.2260869565,142,-0.6926829268
14771870,10371.09375,-3104,1.903126916,128,0.0784794605,-15872,9.7314530963,-11,2.743902439,-45,0.6707317073,-9,0.5487804878,1,-0.0043478261,-51,-0.2217391304,142,-0.6926829268
14772510,10390.625,-3056,1.8736971183,128,0.0784794605,-15904,9.7510729614,-15,3.3536585366,-55,0.9146341463,-20,1.2195121951,2,-0.0086956522,-48,-0.2086956522,140,-0.6829268293
14773150,10410.15625,-3072,1.8835070509,208,0.1275291232,-15808,9.692213366,-15,3.3536585366,-55,0.9146341463,-20,1.2195121951,4,-0.0173913043,-51,-0.2217391304,141,-0.687804878
14773790,10429.6875,-3088,1.8933169834,160,0.0980993256,-15888,9.7412630288,-17,3.1707317073,-52,1.0365853659,-27,1.6463414634,2,-0.0086956522,-47,-0.2043478261,142,-0.6926829268
14774430,10449.21875,-3088,1.8933169834,160,0.0980993256,-15904,9.7510729614,-17,3.1707317073,-52,1.0365853659,-27,1.6463414634,1,-0.0043478261,-45,-0.1956521739,141,-0.687804878
14775070,10468.75,-3232,1.9816063765,208,0.1275291232,-15872,9.7314530963,-11,3.2926829268,-54,0.6707317073,-29,1.7682926829,2,-0.0086956522,-52,-0.2260869565,140,-0.6829268293
14775710,10488.28125,-3152,1.9325567137,224,0.1373390558,-15808,9.692213366,-25,3.1707317073,-52,1.5243902439,-20,1.2195121951,2,-0.0086956522,-52,-0.2260869565,143,-0.6975609756
14776350,10507.8125,-3216,1.9717964439,144,0.088289393,-15696,9.6235438381,-25,3.1707317073,-52,1.5243902439,-20,1.2195121951,1,-0.0043478261,-49,-0.2130434783,142,-0.6926829268
14776990,10527.34375,-3232,1.9816063765,192,0.1177191907,-15792,9.6824034335,-13,2.6829268293,-44,0.7926829268,-14,0.8536585366,2,-0.0086956522,-51,-0.2217391304,141,-0.687804878
14777630,10546.875,-3200,1.9619865113,160,0.0980993256,-15904,9.7510729614,-13,2.6829268293,-44,0.7926829268,-14,0.8536585366,3,-0.0130434783,-52,-0.2260869565,142,-0.6926829268
14778270,10566.40625,-3184,1.9521765788,144,0.088289393,-15840,9.7118332311,-19,2.8658536585,-47,1.1585365854,-16,0.9756097561,3,-0.0130434783,-46,-0.2,140,-0.6829268293
14778910,10585.9375,-3152,1.9325567137,112,0.0686695279,-15856,9.7216431637,-18,3.2317073171,-53,1.0975609756,-12,0.7317073171,0,0,-46,-0.2,141,-0.687804878
14779550,10605.46875,-3104,1.903126916,240,0.1471489884,-15776,9.6725935009,-18,3.2317073171,-53,1.0975609756,-12,0.7317073171,3,-0.0130434783,-48,-0.2086956522,141,-0.687804878
14780190,10625,-3120,1.9129368486,240,0.1471489884,-15728,9.6431637032,-6,3.2926829268,-54,0.3658536585,-13,0.7926829268,1,-0.0043478261,-48,-0.2086956522,141,-0.687804878
14780830,10644.53125,-3024,1.8540772532,240,0.1471489884,-15696,9.6235438381,7,2.5,-41,-0.4268292683,-9,0.5487804878,1,-0.0043478261,-50,-0.2173913043,143,-0.6975609756
14781470,10664.0625,-3136,1.9227467811,208,0.1275291232,-15808,9.692213366,7,2.5,-41,-0.4268292683,-9,0.5487804878,1,-0.0043478261,-45,-0.1956521739,140,-0.6829268293
14782110,10683.59375,-3168,1.9423666462,208,0.1275291232,-15824,9.7020232986,-1,2.8048780488,-46,0.0609756098,-2,0.1219512195,1,-0.0043478261,-51,-0.2217391304,140,-0.6829268293
14782750,10703.125,-3104,1.903126916,224,0.1373390558,-15840,9.7118332311,-1,2.8048780488,-46,0.0609756098,-2,0.1219512195,1,-0.0043478261,-50,-0.2173913043,139,-0.6780487805
14783390,10722.65625,-3008,1.8442673207,192,0.1177191907,-15872,9.7314530963,-24,2.987804878,-49,1.4634146341,-1,0.0609756098,1,-0.0043478261,-50,-0.2173913043,140,-0.6829268293
14784030,10742.1875,-2912,1.7854077253,176,0.1079092581,-15760,9.6627835684,-1,3.1707317073,-52,0.0609756098,-6,0.3658536585,-3,0.0130434783,-46,-0.2,141,-0.687804878
14784670,10761.71875,-3008,1.8442673207,176,0.1079092581,-15760,9.6627835684,-1,3.1707317073,-52,0.0609756098,-6,0.3658536585,3,-0.0130434783,-52,-0.2260869565,142,-0.6926829268
14785310,10781.25,-3088,1.8933169834,224,0.1373390558,-15808,9.692213366,7,3.0487804878,-50,-0.4268292683,-11,0.6707317073,1,-0.0043478261,-47,-0.2043478261,140,-0.6829268293
14785950,10800.78125,-2976,1.8246474555,144,0.088289393,-15872,9.7314530963,7,3.0487804878,-50,-0.4268292683,-11,0.6707317073,2,-0.0086956522,-49,-0.2130434783,142,-0.6926829268
14786590,10820.3125,-3072,1.8835070509,112,0.0686695279,-15824,9.7020232986,5,3.1097560976,-51,-0.3048780488,-14,0.8536585366,2,-0.0086956522,-52,-0.2260869565,142,-0.6926829268
14787230,10839.84375,-3088,1.8933169834,144,0.088289393,-15872,9.7314530963,19,2.9268292683,-48,-1.1585365854,-13,0.7926829268,1,-0.0043478261,-43,-0.1869565217,139,-0.6780487805
14787870,10859.375,-3072,1.8835070509,208,0.1275291232,-15824,9.7020232986,19,2.9268292683,-48,-1.1585365854,-13,0.7926829268,2,-0.0086956522,-48,-0.2086956522,141,-0.687804878
14788510,10878.90625,-3072,1.8835070509,160,0.0980993256,-15680,9.6137339056,24,2.987804878,-49,-1.4634146341,-12,0.7317073171,2,-0.0086956522,-48,-0.2086956522,141,-0.687804878
14789150,10898.4375,-3152,1.9325567137,256,0.1569589209,-15680,9.6137339056,24,2.987804878,-49,-1.4634146341,-12,0.7317073171,1,-0.0043478261,-47,-0.2043478261,142,-0.6926829268
14789790,10917.96875,-3232,1.9816063765,256,0.1569589209,-15728,9.6431637032,25,3.1707317073,-52,-1.5243902439,-13,0.7926829268,4,-0.0173913043,-48,-0.2086956522,141,-0.687804878
14790430,10937.5,-3248,1.991416309,224,0.1373390558,-15712,9.6333537707,-3,3.0487804878,-50,0.1829268293,-14,0.8536585366,4,-0.0173913043,-49,-0.2130434783,142,-0.6926829268
14791070,10957.03125,-3200,1.9619865113,224,0.1373390558,-15696,9.6235438381,-3,3.0487804878,-50,0.1829268293,-14,0.8536585366,1,-0.0043478261,-52,-0.2260869565,142,-0.6926829268
14791710,10976.5625,-3200,1.9619865113,208,0.1275291232,-16032,9.8295524218,10,2.5,-41,-0.6097560976,-10,0.6097560976,1,-0.0043478261,-51,-0.2217391304,142,-0.6926829268
14792350,10996.09375,-3168,1.9423666462,192,0.1177191907,-15872,9.7314530963,9,2.256097561,-37,-0.5487804878,4,-0.243902439,1,-0.0043478261,-50,-0.2173913043,140,-0.6829268293
14792990,11015.625,-3216,1.9717964439,160,0.0980993256,-15888,9.7412630288,9,2.256097561,-37,-0.5487804878,4,-0.243902439,3,-0.0130434783,-52,-0.2260869565,141,-0.687804878
14793630,11035.15625,-3296,2.0208461067,160,0.0980993256,-15856,9.7216431637,-22,2.743902439,-45,1.3414634146,3,-0.1829268293,2,-0.0086956522,-51,-0.2217391304,141,-0.687804878
14794270,11054.6875,-3120,1.9129368486,144,0.088289393,-15904,9.7510729614,-22,2.743902439,-45,1.3414634146,3,-0.1829268293,2,-0.0086956522,-49,-0.2130434783,142,-0.6926829268
14794910,11074.21875,-3024,1.8540772532,208,0.1275291232,-15904,9.7510729614,2,2.743902439,-45,-0.1219512195,-3,0.1829268293,0,0,-45,-0.1956521739,139,-0.6780487805
14795550,11093.75,-3120,1.9129368486,208,0.1275291232,-15904,9.7510729614,15,3.1707317073,-52,-0.9146341463,-6,0.3658536585,3,-0.0130434783,-52,-0.2260869565,141,-0.687804878
14796190,11113.28125,-3248,1.991416309,208,0.1275291232,-15920,9.7608828939,15,3.1707317073,-52,-0.9146341463,-6,0.3658536585,2,-0.0086956522,-48,-0.2086956522,141,-0.687804878
14796830,11132.8125,-3136,1.9227467811,176,0.1079092581,-15824,9.7020232986,-10,3.2317073171,-53,0.6097560976,-5,0.3048780488,0,0,-49,-0.2130434783,141,-0.687804878
14797470,11152.34375,-3056,1.8736971183,128,0.0784794605,-15824,9.7020232986,-10,3.2317073171,-53,0.6097560976,-5,0.3048780488,5,-0.0217391304,-52,-0.2260869565,143,-0.6975609756
14798110,11171.875,-3056,1.8736971183,160,0.0980993256,-15824,9.7020232986,7,3.5365853659,-58,-0.4268292683,-6,0.3658536585,4,-0.0173913043,-53,-0.2304347826,142,-0.6926829268
14798750,11191.40625,-3152,1.9325567137,192,0.1177191907,-15744,9.6529736358,9,3.3536585366,-55,-0.5487804878,-10,0.6097560976,3,-0.0130434783,-49,-0.2130434783,140,-0.6829268293
14799390,11210.9375,-3216,1.9717964439,192,0.1177191907,-15696,9.6235438381,9,3.3536585366,-55,-0.5487804878,-10,0.6097560976,0,0,-48,-0.2086956522,141,-0.687804878
14800030,11230.46875,-3216,1.9717964439,192,0.1177191907,-15744,9.6529736358,-4,3.4756097561,-57,0.243902439,-14,0.8536585366,2,-0.0086956522,-50,-0.2173913043,142,-0.6926829268
14800670,11250,-3152,1.9325567137,288,0.176578786,-15824,9.7020232986,9,2.8658536585,-47,-0.5487804878,-6,0.3658536585,2,-0.0086956522,-51,-0.2217391304,141,-0.687804878
14801310,11269.53125,-3152,1.9325567137,208,0.1275291232,-15824,9.7020232986,9,2.8658536585,-47,-0.5487804878,-6,0.3658536585,4,-0.0173913043,-51,-0.2217391304,140,-0.6829268293
14801950,11289.0625,-3232,1.9816063765,160,0.0980993256,-15824,9.7020232986,6,2.8658536585,-47,-0.3658536585,-7,0.4268292683,4,-0.0173913043,-51,-0.2217391304,140,-0.6829268293
14802590,11308.59375,-3120,1.9129368486,144,0.088289393,-15776,9.6725935009,6,2.8658536585,-47,-0.3658536585,-7,0.4268292683,2,-0.0086956522,-52,-0.2260869565,142,-0.6926829268
14803230,11328.125,-3088,1.8933169834,192,0.1177191907,-15776,9.6725935009,1,3.4146341463,-56,-0.0609756098,-7,0.4268292683,1,-0.0043478261,-47,-0.2043478261,139,-0.6780487805
14803870,11347.65625,7712,-4.7283874923,-304,-0.1863887186,-16576,10.1630901288,2641,-40.1219512195,658,-161.0365853659,-554,33.7804878049,4,-0.0173913043,-49,-0.2130434783,140,-0.6829268293
14804510,11367.1875,-13600,8.3384426732,6000,3.6787247088,-18608,11.4089515635,2641,-40.1219512195,658,-161.0365853659,-554,33.7804878049,6,-0.0260869565,-43,-0.1869565217,134,-0.6536585366
14805150,11386.71875,-12304,7.5438381361,1616,0.9908031882,-17920,10.9871244635,-1632,29.756097561,-488,99.512195122,316,-19.2682926829,6,-0.0260869565,-44,-0.1913043478,136,-0.6634146341
14805790,11406.25,-3712,2.2759043532,432,0.264868179,-16160,9.9080318823,-1632,29.756097561,-488,99.512195122,316,-19.2682926829,3,-0.0130434783,-47,-0.2043478261,139,-0.6780487805
14806430,11425.78125,1776,-1.0889025138,640,0.3923973023,-14768,9.0545677498,-1235,18.4756097561,-303,75.3048780488,-41,2.5,2,-0.0086956522,-51,-0.2217391304,143,-0.6975609756
14807070,11445.3125,-2048,1.2556713673,-2384,-1.461679951,-16368,10.0355610055,65,-0.8536585366,14,-3.9634146341,-1,0.0609756098,1,-0.0043478261,-48,-0.2086956522,142,-0.6926829268
14807710,11464.84375,-3008,1.8442673207,-448,-0.2746781116,-16832,10.3200490497,65,-0.8536585366,14,-3.9634146341,-1,0.0609756098,2,-0.0086956522,-47,-0.2043478261,141,-0.687804878
14808350,11484.375,-2944,1.8050275904,-16,-0.0098099326,-16640,10.202329859,263,0.487804878,-8,-16.0365853659,6,-0.3658536585,-1,0.0043478261,-45,-0.1956521739,140,-0.6829268293
14808990,11503.90625,-3840,2.3543838136,-144,-0.088289393,-16976,10.4083384427,263,0.487804878,-8,-16.0365853659,6,-0.3658536585,4,-0.0173913043,-49,-0.2130434783,142,-0.6926829268
14809630,11523.4375,-4032,2.4721030043,-112,-0.0686695279,-16896,10.3592887799,34,4.0243902439,-66,-2.0731707317,-20,1.2195121951,2,-0.0086956522,-47,-0.2043478261,140,-0.6829268293
14810270,11542.96875,-3504,2.1483752299,-176,-0.1079092581,-16560,10.1532801962,-106,7.0731707317,-116,6.4634146341,-7,0.4268292683,1,-0.0043478261,-47,-0.2043478261,141,-0.687804878
14810910,11562.5,-3040,1.8638871858,-96,-0.0588595953,-16160,9.9080318823,-106,7.0731707317,-116,6.4634146341,-7,0.4268292683,3,-0.0130434783,-48,-0.2086956522,141,-0.687804878
14811550,11582.03125,-2752,1.6873083998,-48,-0.0294297977,-16064,9.8491722869,-2,6.8292682927,-112,0.1219512195,-3,0.1829268293,1,-0.0043478261,-47,-0.2043478261,139,-0.6780487805
14812190,11601.5625,-3056,1.8736971183,48,0.0294297977,-15872,9.7314530963,97,5.8536585366,-96,-5.9146341463,-10,0.6097560976,0,0,-45,-0.1956521739,140,-0.6829268293
14812830,11621.09375,-3408,2.0895156346,80,0.0490496628,-15856,9.7216431637,97,5.8536585366,-96,-5.9146341463,-10,0.6097560976,3,-0.0130434783,-51,-0.2217391304,141,-0.687804878
14813470,11640.625,-3440,2.1091354997,112,0.0686695279,-15696,9.6235438381,21,6.4024390244,-105,-1.2804878049,-4,0.243902439,1,-0.0043478261,-49,-0.2130434783,141,-0.687804878
14814110,11660.15625,-3312,2.0306560392,144,0.088289393,-15616,9.5744941754,21,6.4024390244,-105,-1.2804878049,-4,0.243902439,1,-0.0043478261,-47,-0.2043478261,140,-0.6829268293
14814750,11679.6875,-3088,1.8933169834,160,0.0980993256,-15408,9.4469650521,-14,6.1585365854,-101,0.8536585366,0,0,0,0,-48,-0.2086956522,141,-0.687804878
14815390,11699.21875,-3024,1.8540772532,144,0.088289393,-15344,9.4077253219,28,4.756097561,-78,-1.7073170732,2,-0.1219512195,3,-0.0130434783,-52,-0.2260869565,141,-0.687804878
14816030,11718.75,-3008,1.8442673207,192,0.1177191907,-15488,9.4960147149,28,4.756097561,-78,-1.7073170732,2,-0.1219512195,3,-0.0130434783,-51,-0.2217391304,141,-0.687804878
14816670,11738.28125,-3120,1.9129368486,256,0.1569589209,-15360,9.4175352544,23,3.8414634146,-63,-1.4024390244,5,-0.3048780488,0,0,-48,-0.2086956522,141,-0.687804878
14817310,11757.8125,-3120,1.9129368486,240,0.1471489884,-15408,9.4469650521,23,3.8414634146,-63,-1.4024390244,5,-0.3048780488,3,-0.0130434783,-49,-0.2130434783,140,-0.6829268293
14817950,11777.34375,-3008,1.8442673207,224,0.1373390558,-15344,9.4077253219,-3,3.1097560976,-51,0.1829268293,-3,0.1829268293,4,-0.0173913043,-51,-0.2217391304,143,-0.6975609756
14818590,11796.875,-2944,1.8050275904,176,0.1079092581,-15392,9.4371551196,15,2.5,-41,-0.9146341463,-6,0.3658536585,3,-0.0130434783,-46,-0.2,140,-0.6829268293
14819230,11816.40625,-6096,3.7375843041,-3840,-2.3543838136,-5248,3.2176578786,15,2.5,-41,-0.9146341463,-6,0.3658536585,1,-0.0043478261,-43,-0.1869565217,139,-0.6780487805
14819870,11835.9375,-16544,10.1434702636,8768,5.3758430411,-15360,9.4175352544,3342,-77.4390243902,1270,-203.7804878049,-835,50.9146341463,7,-0.0304347826,-42,-0.1826086957,133,-0.6487804878
14820510,11855.46875,-17120,10.4966278357,320,0.1961986511,-17856,10.9478847333,3342,-77.4390243902,1270,-203.7804878049,-835,50.9146341463,8,-0.0347826087,-43,-0.1869565217,131,-0.6390243902
14821150,11875,-9104,5.5818516248,1184,0.7259350092,-17200,10.5456774985,-1900,43.7195121951,-717,115.8536585366,360,-21.9512195122,3,-0.0130434783,-46,-0.2,139,-0.6780487805
14821790,11894.53125,992,-0.6082158185,5328,3.2667075414,-13904,8.5248313918,-2052,24.6341463415,-404,125.1219512195,54,-3.2926829268,2,-0.0086956522,-43,-0.1869565217,140,-0.6829268293
14822430,11914.0625,2496,-1.5303494788,-3056,-1.8736971183,-14560,8.9270386266,-2052,24.6341463415,-404,125.1219512195,54,-3.2926829268,3,-0.0130434783,-49,-0.2130434783,141,-0.687804878
14823070,11933.59375,-2528,1.549969344,-2752,-1.6873083998,-16896,10.3592887799,181,-5.487804878,90,-11.0365853659,72,-4.3902439024,2,-0.0086956522,-48,-0.2086956522,142,-0.6926829268
14823710,11953.125,-3072,1.8835070509,-64,-0.0392397302,-16848,10.3298589822,380,-3.2926829268,54,-23.1707317073,67,-4.0853658537,2,-0.0086956522,-45,-0.1956521739,142,-0.6926829268
14824350,11972.65625,-3280,2.0110361741,-464,-0.2844880441,-17088,10.4770079706,380,-3.2926829268,54,-23.1707317073,67,-4.0853658537,1,-0.0043478261,-44,-0.1913043478,140,-0.6829268293
14824990,11992.1875,-4560,2.7958307787,-432,-0.264868179,-17856,10.9478847333,153,0.1829268293,-3,-9.3292682927,-1,0.0609756098,2,-0.0086956522,-50,-0.2173913043,140,-0.6829268293
14825630,12011.71875,-4304,2.6388718578,-624,-0.3825873697,-17536,10.7516860822,153,0.1829268293,-3,-9.3292682927,-1,0.0609756098,3,-0.0130434783,-45,-0.1956521739,142,-0.6926829268
14826270,12031.25,-3440,2.1091354997,-624,-0.3825873697,-16976,10.4083384427,-188,6.6463414634,-109,11.4634146341,-18,1.0975609756,1,-0.0043478261,-43,-0.1869565217,141,-0.687804878
14826910,12050.78125,-2656,1.6284488044,-608,-0.3727774372,-16576,10.1630901288,-47,8.1707317073,-134,2.8658536585,2,-0.1219512195,2,-0.0086956522,-45,-0.1956521739,141,-0.687804878
14827550,12070.3125,-2704,1.6578786021,-432,-0.264868179,-16352,10.025751073,-47,8.1707317073,-134,2.8658536585,2,-0.1219512195,1,-0.0043478261,-47,-0.2043478261,141,-0.687804878
14828190,12089.84375,-3152,1.9325567137,-288,-0.176578786,-16288,9.9865113427,110,7.4390243902,-122,-6.7073170732,-12,0.7317073171,3,-0.0130434783,-44,-0.1913043478,140,-0.6829268293
14828830,12109.375,-3520,2.1581851625,-208,-0.1275291232,-16064,9.8491722869,110,7.4390243902,-122,-6.7073170732,-12,0.7317073171,4,-0.0173913043,-49,-0.2130434783,141,-0.687804878
14829470,12128.90625,-3584,2.1974248927,-192,-0.1177191907,-15792,9.6824034335,35,8.5365853659,-140,-2.1341463415,-9,0.5487804878,1,-0.0043478261,-46,-0.2,140,-0.6829268293
14830110,12148.4375,-3296,2.0208461067,-208,-0.1275291232,-15696,9.6235438381,-66,8.6585365854,-142,4.0243902439,0,0,1,-0.0043478261,-47,-0.2043478261,138,-0.6731707317
14830750,12167.96875,-3040,1.8638871858,-80,-0.0490496628,-15440,9.4665849172,-66,8.6585365854,-142,4.0243902439,0,0,4,-0.0173913043,-48,-0.2086956522,140,-0.6829268293
14831390,12187.5,-2992,1.8344573881,-32,-0.0196198651,-15328,9.3979153893,-15,6.9512195122,-114,0.9146341463,6,-0.3658536585,2,-0.0086956522,-48,-0.2086956522,142,-0.6926829268
14832030,12207.03125,-3088,1.8933169834,-16,-0.0098099326,-15424,9.4567749847,-15,6.9512195122,-114,0.9146341463,6,-0.3658536585,2,-0.0086956522,-49,-0.2130434783,140,-0.6829268293
14832670,12226.5625,-3072,1.8835070509,-16,-0.0098099326,-15344,9.4077253219,37,5.1829268293,-85,-2.256097561,21,-1.2804878049,4,-0.0173913043,-49,-0.2130434783,140,-0.6829268293
14833310,12246.09375,-3120,1.9129368486,-16,-0.0098099326,-15280,9.3684855917,-1,4.512195122,-74,0.0609756098,15,-0.9146341463,0,0,-49,-0.2130434783,140,-0.6829268293
14833950,12265.625,-3024,1.8540772532,-16,-0.0098099326,-15264,9.3586756591,-1,4.512195122,-74,0.0609756098,15,-0.9146341463,3,-0.0130434783,-45,-0.1956521739,142,-0.6926829268
14834590,12285.15625,-2928,1.7952176579,32,0.0196198651,-15312,9.3881054568,-18,3.9634146341,-65,1.0975609756,1,-0.0609756098,1,-0.0043478261,-46,-0.2,141,-0.687804878
14835230,12304.6875,-2896,1.7755977928,48,0.0294297977,-15328,9.3979153893,16,2.6829268293,-44,-0.9756097561,-9,0.5487804878,4,-0.0173913043,-51,-0.2217391304,141,-0.687804878
14835870,12324.21875,-3024,1.8540772532,0,0,-15392,9.4371551196,16,2.6829268293,-44,-0.9756097561,-9,0.5487804878,4,-0.0173913043,-49,-0.2130434783,140,-0.6829268293
14836510,12343.75,-3152,1.9325567137,0,0,-15392,9.4371551196,0,1.6463414634,-27,0,-11,0.6707317073,0,0,-46,-0.2,141,-0.687804878
14837150,12363.28125,-3152,1.9325567137,0,0,-15552,9.5352544451,0,1.6463414634,-27,0,-11,0.6707317073,2,-0.0086956522,-47,-0.2043478261,141,-0.687804878
14837790,12382.8125,-3056,1.8736971183,64,0.0392397302,-15632,9.5843041079,-36,1.2195121951,-20,2.1951219512,-10,0.6097560976,3,-0.0130434783,-45,-0.1956521739,142,-0.6926829268
14838430,12402.34375,-3024,1.8540772532,0,0,-15760,9.6627835684,-19,0.9756097561,-16,1.1585365854,-8,0.487804878,3,-0.0130434783,-48,-0.2086956522,140,-0.6829268293
14839070,12421.875,-3024,1.8540772532,-16,-0.0098099326,-15872,9.7314530963,-19,0.9756097561,-16,1.1585365854,-8,0.487804878,0,0,-45,-0.1956521739,140,-0.6829268293
14839710,12441.40625,-3040,1.8638871858,32,0.0196198651,-16032,9.8295524218,12,0.7317073171,-12,-0.7317073171,-6,0.3658536585,2,-0.0086956522,-46,-0.2,139,-0.6780487805
14840350,12460.9375,-3088,1.8933169834,-128,-0.0784794605,-16128,9.8884120172,12,0.7317073171,-12,-0.7317073171,-6,0.3658536585,2,-0.0086956522,-44,-0.1913043478,140,-0.6829268293
14840990,12480.46875,-3040,1.8638871858,-80,-0.0490496628,-16320,10.0061312078,12,1.2195121951,-20,-0.7317073171,-2,0.1219512195,1,-0.0043478261,-44,-0.1913043478,140,-0.6829268293
14841630,12500,-2816,1.72654813,-64,-0.0392397302,-16400,10.0551808706,-9,1.5853658537,-26,0.5487804878,-3,0.1829268293,-1,0.0043478261,-42,-0.1826086957,140,-0.6829268293
14842270,12519.53125,-2432,1.4911097486,-64,-0.0392397302,-16480,10.1042305334,-9,1.5853658537,-26,0.5487804878,-3,0.1829268293,-1,0.0043478261,-43,-0.1869565217,140,-0.6829268293
14842910,12539.0625,-2096,1.2851011649,-128,-0.0784794605,-16688,10.2317596567,40,2.256097561,-37,-2.4390243902,-9,0.5487804878,3,-0.0130434783,-50,-0.2173913043,141,-0.687804878
14843550,12558.59375,-1968,1.2066217045,-96,-0.0588595953,-16784,10.290619252,61,4.3902439024,-72,-3.7195121951,-48,2.9268292683,2,-0.0086956522,-49,-0.2130434783,140,-0.6829268293
14844190,12578.125,-1616,0.9908031882,-160,-0.0980993256,-16976,10.4083384427,61,4.3902439024,-72,-3.7195121951,-48,2.9268292683,4,-0.0173913043,-50,-0.2173913043,140,-0.6829268293
14844830,12597.65625,-1232,0.7553648069,-256,-0.1569589209,-17040,10.4475781729,61,7.256097561,-119,-3.7195121951,-99,6.0365853659,4,-0.0173913043,-50,-0.2173913043,141,-0.687804878
14845470,12617.1875,-1072,0.6572654813,-112,-0.0686695279,-17056,10.4573881055,61,7.256097561,-119,-3.7195121951,-99,6.0365853659,1,-0.0043478261,-47,-0.2043478261,141,-0.687804878
14846110,12636.71875,-912,0.5591661557,-144,-0.088289393,-17104,10.4868179031,27,10.3048780488,-169,-1.6463414634,-182,11.0975609756,2,-0.0086956522,-44,-0.1913043478,140,-0.6829268293
14846750,12656.25,-336,0.2060085837,-176,-0.1079092581,-17072,10.467198038,10,13.4146341463,-220,-0.6097560976,-276,16.8292682927,2,-0.0086956522,-42,-0.1826086957,139,-0.6780487805
14847390,12675.78125,-336,0.2060085837,0,0,-16784,10.290619252,10,13.4146341463,-220,-0.6097560976,-276,16.8292682927,2,-0.0086956522,-46,-0.2,141,-0.687804878
14848030,12695.3125,-368,0.2256284488,-16,-0.0098099326,-16608,10.1827099939,41,16.0365853659,-263,-2.5,-375,22.8658536585,5,-0.0217391304,-47,-0.2043478261,139,-0.6780487805
14848670,12714.84375,-320,0.1961986511,16,0.0098099326,-16640,10.202329859,41,16.0365853659,-263,-2.5,-375,22.8658536585,4,-0.0173913043,-46,-0.2,139,-0.6780487805
14849310,12734.375,-480,0.2942979767,112,0.0686695279,-16592,10.1729000613,41,18.4146341463,-302,-2.5,-486,29.6341463415,5,-0.0217391304,-48,-0.2086956522,140,-0.6829268293
14849950,12753.90625,-576,0.353157572,32,0.0196198651,-16272,9.9767014102,46,19.4512195122,-319,-2.8048780488,-561,34.2073170732,4,-0.0173913043,-46,-0.2,140,-0.6829268293
14850590,12773.4375,-592,0.3629675046,16,0.0098099326,-16208,9.93746168,46,19.4512195122,-319,-2.8048780488,-561,34.2073170732,2,-0.0086956522,-43,-0.1869565217,138,-0.6731707317
14851230,12792.96875,-976,0.598405886,176,0.1079092581,-16176,9.9178418148,30,19.4512195122,-319,-1.8292682927,-638,38.9024390244,6,-0.0260869565,-43,-0.1869565217,139,-0.6780487805
14851870,12812.5,-976,0.598405886,96,0.0588595953,-16144,9.8982219497,30,19.4512195122,-319,-1.8292682927,-638,38.9024390244,3,-0.0130434783,-39,-0.1695652174,136,-0.6634146341
14852510,12832.03125,-688,0.4218270999,-64,-0.0392397302,-15968,9.7903126916,-31,20.4268292683,-335,1.8902439024,-703,42.8658536585,2,-0.0086956522,-44,-0.1913043478,137,-0.6682926829
14853150,12851.5625,-912,0.5591661557,64,0.0392397302,-15968,9.7903126916,-6,20.8536585366,-342,0.3658536585,-792,48.2926829268,4,-0.0173913043,-42,-0.1826086957,138,-0.6731707317
14853790,12871.09375,-1200,0.7357449418,32,0.0196198651,-16016,9.8197424893,-6,20.8536585366,-342,0.3658536585,-792,48.2926829268,5,-0.0217391304,-44,-0.1913043478,138,-0.6731707317
14854430,12890.625,-1376,0.8436541999,-80,-0.0490496628,-15904,9.7510729614,-83,21.4634146341,-352,5.0609756098,-871,53.1097560976,4,-0.0173913043,-39,-0.1695652174,138,-0.6731707317
14855070,12910.15625,-1056,0.6474555487,-48,-0.0294297977,-15840,9.7118332311,-106,20.9146341463,-343,6.4634146341,-942,57.4390243902,4,-0.0173913043,-36,-0.1565217391,139,-0.6780487805
14855710,12929.6875,-1344,0.8240343348,112,0.0686695279,-15888,9.7412630288,-106,20.9146341463,-343,6.4634146341,-942,57.4390243902,4,-0.0173913043,-41,-0.1782608696,138,-0.6731707317
14856350,12949.21875,-1648,1.0104230533,-16,-0.0098099326,-15872,9.7314530963,-82,21.3414634146,-350,5,-1012,61.7073170732,4,-0.0173913043,-34,-0.147826087,138,-0.6731707317
14856990,12968.75,-1680,1.0300429185,-144,-0.088289393,-15888,9.7412630288,-82,21.3414634146,-350,5,-1012,61.7073170732,3,-0.0130434783,-35,-0.152173913,138,-0.6731707317
14857630,12988.28125,-1968,1.2066217045,-64,-0.0392397302,-16000,9.8099325567,-91,21.5853658537,-354,5.5487804878,-1083,66.0365853659,3,-0.0130434783,-35,-0.152173913,137,-0.6682926829
14858270,13007.8125,-2480,1.5205395463,-96,-0.0588595953,-16016,9.8197424893,-105,22.256097561,-365,6.4024390244,-1129,68.8414634146,5,-0.0217391304,-36,-0.1565217391,138,-0.6731707317
14858910,13027.34375,-2576,1.5793991416,-176,-0.1079092581,-15872,9.7314530963,-105,22.256097561,-365,6.4024390244,-1129,68.8414634146,3,-0.0130434783,-34,-0.147826087,139,-0.6780487805
14859550,13046.875,-2544,1.5597792765,-272,-0.1667688535,-15904,9.7510729614,-111,22.256097561,-365,6.7682926829,-1169,71.2804878049,3,-0.0130434783,-29,-0.1260869565,137,-0.6682926829
14860190,13066.40625,-2992,1.8344573881,-368,-0.2256284488,-15632,9.5843041079,-111,22.256097561,-365,6.7682926829,-1169,71.2804878049,2,-0.0086956522,-27,-0.1173913043,137,-0.6682926829
14860830,13085.9375,-3360,2.0600858369,-272,-0.1667688535,-15552,9.5352544451,-95,22.0731707317,-362,5.7926829268,-1186,72.3170731707,-1,0.0043478261,-28,-0.1217391304,138,-0.6731707317
14861470,13105.46875,-3408,2.0895156346,-288,-0.176578786,-15568,9.5450643777,-122,20.7926829268,-341,7.4390243902,-1191,72.6219512195,3,-0.0130434783,-25,-0.1086956522,137,-0.6682926829
14862110,13125,-4112,2.5211526671,-176,-0.1079092581,-15520,9.51563458,-122,20.7926829268,-341,7.4390243902,-1191,72.6219512195,-3,0.0130434783,-20,-0.0869565217,135,-0.6585365854
14862750,13144.53125,-4224,2.589822195,-272,-0.1667688535,-15216,9.3292458614,-170,19.6341463415,-322,10.3658536585,-1185,72.256097561,-1,0.0043478261,-22,-0.0956521739,136,-0.6634146341
14863390,13164.0625,-3840,2.3543838136,-144,-0.088289393,-15040,9.2213366033,-170,19.6341463415,-322,10.3658536585,-1185,72.256097561,-2,0.0086956522,-18,-0.0782608696,136,-0.6634146341
14864030,13183.59375,-3888,2.3838136113,-112,-0.0686695279,-14704,9.0153280196,-96,17.3170731707,-284,5.8536585366,-1140,69.512195122,-3,0.0130434783,-16,-0.0695652174,136,-0.6634146341
14864670,13203.125,-4400,2.6977314531,-64,-0.0392397302,-14976,9.1820968731,236,14.512195122,-238,-14.3902439024,-1057,64.4512195122,-4,0.0173913043,-17,-0.0739130435,138,-0.6731707317
14865310,13222.65625,-5200,3.1882280809,-160,-0.0980993256,-15216,9.3292458614,236,14.512195122,-238,-14.3902439024,-1057,64.4512195122,-3,0.0130434783,-15,-0.0652173913,136,-0.6634146341
14865950,13242.1875,-6352,3.894543225,-224,-0.1373390558,-15040,9.2213366033,265,13.6585365854,-224,-16.1585365854,-1025,62.5,-3,0.0130434783,-14,-0.0608695652,136,-0.6634146341
14866590,13261.71875,-6576,4.0318822808,-224,-0.1373390558,-15168,9.2998160638,-36,14.0853658537,-231,2.1951219512,-974,59.3902439024,-1,0.0043478261,-18,-0.0782608696,136,-0.6634146341
14867230,13281.25,-6336,3.8847332925,-160,-0.0980993256,-15104,9.2605763335,-36,14.0853658537,-231,2.1951219512,-974,59.3902439024,-3,0.0130434783,-17,-0.0739130435,137,-0.6682926829
14867870,13300.78125,-6032,3.6983445739,-48,-0.0294297977,-14944,9.162477008,89,13.5975609756,-223,-5.4268292683,-857,52.256097561,-3,0.0130434783,-11,-0.047826087,136,-0.6634146341
14868510,13320.3125,-6560,4.0220723483,16,0.0098099326,-14944,9.162477008,89,13.5975609756,-223,-5.4268292683,-857,52.256097561,-4,0.0173913043,-12,-0.052173913,135,-0.6585365854
14869150,13339.84375,-7088,4.3458001226,16,0.0098099326,-14896,9.1330472103,184,10.7926829268,-177,-11.2195121951,-755,46.0365853659,-2,0.0086956522,-12,-0.052173913,135,-0.6585365854
14869790,13359.375,-7280,4.4635193133,-96,-0.0588595953,-14720,9.0251379522,133,9.2073170732,-151,-8.1097560976,-616,37.5609756098,-3,0.0130434783,-11,-0.047826087,134,-0.6536585366
14870430,13378.90625,-7536,4.6204782342,96,0.0588595953,-14640,8.9760882894,133,9.2073170732,-151,-8.1097560976,-616,37.5609756098,-3,0.0130434783,-7,-0.0304347826,134,-0.6536585366
14871070,13398.4375,-7520,4.6106683017,160,0.0980993256,-14608,8.9564684243,47,6.3414634146,-104,-2.8658536585,-454,27.6829268293,-5,0.0217391304,-7,-0.0304347826,134,-0.6536585366
14871710,13417.96875,-7296,4.4733292459,224,0.1373390558,-14592,8.9466584917,47,6.3414634146,-104,-2.8658536585,-454,27.6829268293,-6,0.0260869565,-10,-0.0434782609,134,-0.6536585366
14872350,13437.5,-7344,4.5027590435,192,0.1177191907,-14496,8.8877988964,88,2.5,-41,-5.3658536585,-313,19.0853658537,-6,0.0260869565,-10,-0.0434782609,135,-0.6585365854
14872990,13457.03125,-7600,4.6597179644,96,0.0588595953,-14608,8.9564684243,148,0.3048780488,-5,-9.0243902439,-184,11.2195121951,-8,0.0347826087,-2,-0.0086956522,133,-0.6487804878
14873630,13476.5625,-7648,4.6891477621,16,0.0098099326,-14608,8.9564684243,148,0.3048780488,-5,-9.0243902439,-184,11.2195121951,-4,0.0173913043,-7,-0.0304347826,134,-0.6536585366
14874270,13496.09375,-7696,4.7185775598,-48,-0.0294297977,-14688,9.0055180871,151,-1.2804878049,21,-9.2073170732,-53,3.2317073171,-5,0.0217391304,-6,-0.0260869565,131,-0.6390243902
14874910,13515.625,-7872,4.8264868179,-128,-0.0784794605,-14784,9.0643776824,151,-1.2804878049,21,-9.2073170732,-53,3.2317073171,-4,0.0173913043,-6,-0.0260869565,132,-0.643902439
14875550,13535.15625,-7744,4.7480073574,-96,-0.0588595953,-14688,9.0055180871,98,-1.8292682927,30,-5.9756097561,65,-3.9634146341,-3,0.0130434783,-9,-0.0391304348,132,-0.643902439
14876190,13554.6875,-7536,4.6204782342,-96,-0.0588595953,-14608,8.9564684243,99,-4.3902439024,72,-6.0365853659,202,-12.3170731707,-4,0.0173913043,-10,-0.0434782609,133,-0.6487804878
14876830,13574.21875,-7584,4.6499080319,-80,-0.0490496628,-14688,9.0055180871,99,-4.3902439024,72,-6.0365853659,202,-12.3170731707,-5,0.0217391304,-3,-0.0130434783,131,-0.6390243902
14877470,13593.75,-7568,4.6400980993,-192,-0.1177191907,-14928,9.1526670754,85,-7.1341463415,117,-5.1829268293,340,-20.7317073171,-4,0.0173913043,-6,-0.0260869565,132,-0.643902439
14878110,13613.28125,-7472,4.581238504,-224,-0.1373390558,-15072,9.2409564684,77,-9.6951219512,159,-4.6951219512,479,-29.2073170732,-3,0.0130434783,-10,-0.0434782609,133,-0.6487804878
14878750,13632.8125,-7520,4.6106683017,-256,-0.1569589209,-15248,9.3488657265,77,-9.6951219512,159,-4.6951219512,479,-29.2073170732,-2,0.0086956522,-10,-0.0434782609,132,-0.643902439
14879390,13652.34375,-7360,4.5125689761,-368,-0.2256284488,-15248,9.3488657265,59,-10.243902439,168,-3.5975609756,593,-36.1585365854,-3,0.0130434783,-8,-0.0347826087,130,-0.6341463415
14880030,13671.875,-7024,4.3065603924,-496,-0.3041079093,-15344,9.4077253219,59,-10.243902439,168,-3.5975609756,593,-36.1585365854,-2,0.0086956522,-6,-0.0260869565,131,-0.6390243902
14880670,13691.40625,-6960,4.2673206622,-480,-0.2942979767,-15536,9.5254445126,107,-11.0975609756,182,-6.5243902439,704,-42.9268292683,1,-0.0043478261,-13,-0.0565217391,133,-0.6487804878
14881310,13710.9375,-7024,4.3065603924,-512,-0.3139178418,-15408,9.4469650521,67,-10.8536585366,178,-4.0853658537,795,-48.4756097561,0,0,-13,-0.0565217391,132,-0.643902439
14881950,13730.46875,-7200,4.4144696505,-592,-0.3629675046,-15264,9.3586756591,67,-10.8536585366,178,-4.0853658537,795,-48.4756097561,1,-0.0043478261,-11,-0.047826087,131,-0.6390243902
14882590,13750,-7040,4.316370325,-688,-0.4218270999,-15136,9.2801961987,-90,-9.2073170732,151,5.487804878,817,-49.8170731707,2,-0.0086956522,-13,-0.0565217391,132,-0.643902439
14883230,13769.53125,-6320,3.8749233599,-736,-0.4512568976,-15104,9.2605763335,-90,-9.2073170732,151,5.487804878,817,-49.8170731707,-1,0.0043478261,-14,-0.0608695652,132,-0.643902439
14883870,13789.0625,-6000,3.6787247088,-768,-0.4708767627,-15040,9.2213366033,11,-10.243902439,168,-0.6707317073,902,-55,0,0,-11,-0.047826087,131,-0.6390243902
14884510,13808.59375,-6416,3.9337829552,-688,-0.4218270999,-15136,9.2801961987,80,-11.0975609756,182,-4.8780487805,970,-59.1463414634,0,0,-12,-0.052173913,131,-0.6390243902
14885150,13828.125,-6608,4.0515021459,-736,-0.4512568976,-15104,9.2605763335,80,-11.0975609756,182,-4.8780487805,970,-59.1463414634,3,-0.0130434783,-15,-0.0652173913,131,-0.6390243902
14885790,13847.65625,-6464,3.9632127529,-720,-0.4414469651,-15120,9.2703862661,-10,-11.6463414634,191,0.6097560976,1016,-61.9512195122,3,-0.0130434783,-14,-0.0608695652,133,-0.6487804878
14886430,13867.1875,-6064,3.717964439,-912,-0.5591661557,-14992,9.1919068056,-10,-11.6463414634,191,0.6097560976,1016,-61.9512195122,3,-0.0130434783,-18,-0.0782608696,131,-0.6390243902
14887070,13886.71875,-6048,3.7081545064,-1008,-0.6180257511,-14864,9.1134273452,82,-13.6585365854,224,-5,1108,-67.5609756098,5,-0.0217391304,-19,-0.0826086957,130,-0.6341463415
14887710,13906.25,-6176,3.7866339669,-1040,-0.6376456162,-14784,9.0643776824,100,-17.3780487805,285,-6.0975609756,1219,-74.3292682927,6,-0.0260869565,-27,-0.1173913043,132,-0.643902439
14888350,13925.78125,-6016,3.6885346413,-960,-0.5885959534,-14752,9.0447578173,100,-17.3780487805,285,-6.0975609756,1219,-74.3292682927,5,-0.0217391304,-24,-0.1043478261,133,-0.6487804878
14888990,13945.3125,-5888,3.6100551809,-1024,-0.6278356836,-14912,9.1428571429,86,-20.7317073171,340,-5.243902439,1314,-80.1219512195,6,-0.0260869565,-28,-0.1217391304,132,-0.643902439
14889630,13964.84375,-5808,3.5610055181,-1168,-0.7161250766,-15168,9.2998160638,33,-23.2926829268,382,-2.012195122,1390,-84.756097561,8,-0.0347826087,-31,-0.1347826087,134,-0.6536585366
14890270,13984.375,-5552,3.4040465972,-1216,-0.7455548743,-15312,9.3881054568,33,-23.2926829268,382,-2.012195122,1390,-84.756097561,8,-0.0347826087,-34,-0.147826087,133,-0.6487804878
14890910,14003.90625,-5344,3.2765174739,-1312,-0.8044144697,-15360,9.4175352544,-14,-24.4512195122,401,0.8536585366,1462,-89.1463414634,7,-0.0304347826,-32,-0.1391304348,132,-0.643902439
14891550,14023.4375,-5136,3.1489883507,-1344,-0.8240343348,-15456,9.4763948498,-14,-24.4512195122,401,0.8536585366,1462,-89.1463414634,6,-0.0260869565,-35,-0.152173913,132,-0.643902439
14892190,14042.96875,-4720,2.8939301042,-1328,-0.8142244022,-15488,9.4960147149,-51,-25.1829268293,413,3.1097560976,1517,-92.5,9,-0.0391304348,-37,-0.1608695652,135,-0.6585365854
14892830,14062.5,-4256,2.6094420601,-1472,-0.9025137952,-15904,9.7510729614,-9,-25.6097560976,420,0.5487804878,1532,-93.4146341463,7,-0.0304347826,-40,-0.1739130435,133,-0.6487804878
14893470,14082.03125,-4160,2.5505824647,-1440,-0.8828939301,-15984,9.8001226242,-9,-25.6097560976,420,0.5487804878,1532,-93.4146341463,9,-0.0391304348,-41,-0.1782608696,134,-0.6536585366
14894110,14101.5625,-4128,2.5309625996,-1488,-0.9123237278,-15952,9.780502759,-1,-23.9634146341,393,0.0609756098,1511,-92.1341463415,9,-0.0391304348,-44,-0.1913043478,134,-0.6536585366
14894750,14121.09375,-3808,2.3347639485,-1648,-1.0104230533,-16176,9.9178418148,-1,-23.9634146341,393,0.0609756098,1511,-92.1341463415,6,-0.0260869565,-42,-0.1826086957,132,-0.643902439
14895390,14140.625,-3632,2.2268546904,-1712,-1.0496627836,-16416,10.0649908032,15,-22.1341463415,363,-0.9146341463,1475,-89.9390243902,6,-0.0260869565,-44,-0.1913043478,134,-0.6536585366
14896030,14160.15625,-3824,2.3445738811,-1616,-0.9908031882,-16512,10.1238503985,12,-18.7195121951,307,-0.7317073171,1418,-86.4634146341,8,-0.0347826087,-50,-0.2173913043,135,-0.6585365854
14896670,14179.6875,-3840,2.3543838136,-1600,-0.9809932557,-16464,10.0944206009,12,-18.7195121951,307,-0.7317073171,1418,-86.4634146341,7,-0.0304347826,-46,-0.2,134,-0.6536585366
14897310,14199.21875,-3600,2.2072348253,-1568,-0.9613733906,-16512,10.1238503985,-64,-15.3658536585,252,3.9024390244,1357,-82.743902439,6,-0.0260869565,-49,-0.2130434783,135,-0.6585365854
14897950,14218.75,-3424,2.0993255671,-1552,-0.951563458,-16384,10.0453709381,-8,-11.5243902439,189,0.487804878,1298,-79.1463414634,8,-0.0347826087,-55,-0.2391304348,136,-0.6634146341
14898590,14238.28125,-3744,2.2955242183,-1408,-0.863274065,-16096,9.8687921521,-8,-11.5243902439,189,0.487804878,1298,-79.1463414634,4,-0.0173913043,-50,-0.2173913043,136,-0.6634146341
14899230,14257.8125,-3600,2.2072348253,-1472,-0.9025137952,-16368,10.0355610055,15,-10.9146341463,179,-0.9146341463,1268,-77.3170731707,4,-0.0173913043,-55,-0.2391304348,135,-0.6585365854
14899870,14277.34375,-3520,2.1581851625,-1488,-0.9123237278,-16496,10.114040466,15,-10.9146341463,179,-0.9146341463,1268,-77.3170731707,5,-0.0217391304,-58,-0.252173913,137,-0.6682926829
14900510,14296.875,-4000,2.4524831392,-1152,-0.7063151441,-16352,10.025751073,100,-10.6097560976,174,-6.0975609756,1294,-78.9024390244,6,-0.0260869565,-62,-0.2695652174,139,-0.6780487805
14901150,14316.40625,-4112,2.5211526671,-960,-0.5885959534,-16416,10.0649908032,53,-10.0609756098,165,-3.2317073171,1315,-80.1829268293,5,-0.0217391304,-64,-0.2782608696,137,-0.6682926829
14901790,14335.9375,-3456,2.1189454323,-1072,-0.6572654813,-16512,10.1238503985,53,-10.0609756098,165,-3.2317073171,1315,-80.1829268293,5,-0.0217391304,-64,-0.2782608696,136,-0.6634146341
14902430,14355.46875,-3168,1.9423666462,-1072,-0.6572654813,-16320,10.0061312078,200,-9.5731707317,157,-12.1951219512,1321,-80.5487804878,5,-0.0217391304,-67,-0.2913043478,138,-0.6731707317
14903070,14375,-3648,2.2366646229,-848,-0.5199264255,-16272,9.9767014102,200,-9.5731707317,157,-12.1951219512,1321,-80.5487804878,2,-0.0086956522,-71,-0.3086956522,138,-0.6731707317
14903710,14394.53125,-3888,2.3838136113,-896,-0.5493562232,-16144,9.8982219497,228,-8.9634146341,147,-13.9024390244,1285,-78.3536585366,2,-0.0086956522,-73,-0.3173913043,139,-0.6780487805
14904350,14414.0625,-3664,2.2464745555,-912,-0.5591661557,-16016,9.8197424893,32,-7.8048780488,128,-1.9512195122,1223,-74.5731707317,0,0,-71,-0.3086956522,136,-0.6634146341
14904990,14433.59375,-3264,2.0012262416,-992,-0.6082158185,-15984,9.8001226242,32,-7.8048780488,128,-1.9512195122,1223,-74.5731707317,-1,0.0043478261,-76,-0.3304347826,137,-0.6682926829
14905630,14453.125,-3056,1.8736971183,-1008,-0.6180257511,-15968,9.7903126916,52,-8.2926829268,136,-3.1707317073,1228,-74.8780487805,0,0,-78,-0.3391304348,139,-0.6780487805
14906270,14472.65625,-3488,2.1385652974,-688,-0.4218270999,-15840,9.7118332311,52,-8.2926829268,136,-3.1707317073,1228,-74.8780487805,-1,0.0043478261,-78,-0.3391304348,140,-0.6829268293
14906910,14492.1875,-3536,2.167995095,-352,-0.2158185162,-15552,9.5352544451,-91,-5.9756097561,98,5.5487804878,1165,-71.0365853659,-3,0.0130434783,-83,-0.3608695652,139,-0.6780487805
14907550,14511.71875,-2672,1.638258737,-672,-0.4120171674,-15520,9.51563458,-75,-5.3658536585,88,4.5731707317,1101,-67.1341463415,-5,0.0217391304,-84,-0.3652173913,140,-0.6829268293
14908190,14531.25,-2928,1.7952176579,-656,-0.4022072348,-15632,9.5843041079,-75,-5.3658536585,88,4.5731707317,1101,-67.1341463415,-5,0.0217391304,-80,-0.347826087,141,-0.687804878
14908830,14550.78125,-3856,2.3641937462,-272,-0.1667688535,-15392,9.4371551196,57,-5.6097560976,92,-3.4756097561,1067,-65.0609756098,-5,0.0217391304,-82,-0.3565217391,139,-0.6780487805
14909470,14570.3125,-3216,1.9717964439,-144,-0.088289393,-15264,9.3586756591,40,-5.3658536585,88,-2.4390243902,1035,-63.1097560976,-6,0.0260869565,-86,-0.3739130435,141,-0.687804878
14910110,14589.84375,-2896,1.7755977928,32,0.0196198651,-15104,9.2605763335,40,-5.3658536585,88,-2.4390243902,1035,-63.1097560976,-7,0.0304347826,-90,-0.3913043478,141,-0.687804878
14910750,14609.375,-3632,2.2268546904,48,0.0294297977,-14944,9.162477008,180,-9.512195122,156,-10.9756097561,1046,-63.7804878049,-7,0.0304347826,-89,-0.3869565217,142,-0.6926829268
14911390,14628.90625,-4224,2.589822195,32,0.0196198651,-15152,9.2900061312,180,-9.512195122,156,-10.9756097561,1046,-63.7804878049,-8,0.0347826087,-87,-0.3782608696,141,-0.687804878
14912030,14648.4375,-2880,1.7657878602,112,0.0686695279,-15280,9.3684855917,-190,-10.4268292683,171,11.5853658537,1015,-61.8902439024,-8,0.0347826087,-94,-0.4086956522,144,-0.7024390244
14912670,14667.96875,-1760,1.0790925812,32,0.0196198651,-15440,9.4665849172,44,-11.8292682927,194,-2.6829268293,1052,-64.1463414634,-11,0.047826087,-94,-0.4086956522,144,-0.7024390244
14913310,14687.5,-1824,1.1183323115,368,0.2256284488,-15472,9.4862047823,44,-11.8292682927,194,-2.6829268293,1052,-64.1463414634,-11,0.047826087,-92,-0.4,142,-0.6926829268
14913950,14707.03125,-2032,1.2458614347,352,0.2158185162,-15648,9.5941140405,73,-13.5365853659,222,-4.4512195122,993,-60.5487804878,-13,0.0565217391,-94,-0.4086956522,144,-0.7024390244
14914590,14726.5625,-1232,0.7553648069,448,0.2746781116,-15984,9.8001226242,73,-13.5365853659,222,-4.4512195122,993,-60.5487804878,-16,0.0695652174,-97,-0.4217391304,146,-0.712195122
14915230,14746.09375,-560,0.3433476395,496,0.3041079093,-16272,9.9767014102,56,-11.9512195122,196,-3.4146341463,891,-54.3292682927,-16,0.0695652174,-98,-0.4260869565,145,-0.7073170732
14915870,14765.625,-560,0.3433476395,592,0.3629675046,-16384,10.0453709381,179,-10.1829268293,167,-10.9146341463,784,-47.8048780488,-15,0.0652173913,-98,-0.4260869565,145,-0.7073170732
14916510,14785.15625,-512,0.3139178418,592,0.3629675046,-16576,10.1630901288,179,-10.1829268293,167,-10.9146341463,784,-47.8048780488,-17,0.0739130435,-98,-0.4260869565,144,-0.7024390244
14917150,14804.6875,-96,0.0588595953,640,0.3923973023,-16688,10.2317596567,42,-7.1951219512,118,-2.5609756098,618,-37.6829268293,-18,0.0782608696,-96,-0.4173913043,145,-0.7073170732
14917790,14824.21875,-80,0.0490496628,736,0.4512568976,-16672,10.2219497241,42,-7.1951219512,118,-2.5609756098,618,-37.6829268293,-19,0.0826086957,-97,-0.4217391304,146,-0.712195122
14918430,14843.75,-240,0.1471489884,1008,0.6180257511,-16800,10.3004291845,-19,-3.2926829268,54,1.1585365854,452,-27.5609756098,-18,0.0782608696,-101,-0.4391304348,146,-0.712195122
14919070,14863.28125,0,0,992,0.6082158185,-16768,10.2808093194,-149,0.9756097561,-16,9.0853658537,281,-17.1341463415,-20,0.0869565217,-97,-0.4217391304,144,-0.7024390244
14919710,14882.8125,192,-0.1177191907,928,0.5689760883,-16512,10.1238503985,-149,0.9756097561,-16,9.0853658537,281,-17.1341463415,-22,0.0956521739,-98,-0.4260869565,147,-0.7170731707
14920350,14902.34375,-16,0.0098099326,1136,0.6965052115,-16480,10.1042305334,-60,3.1707317073,-52,3.6585365854,139,-8.4756097561,-21,0.0913043478,-99,-0.4304347826,146,-0.712195122
14920990,14921.875,-48,0.0294297977,1216,0.7455548743,-16448,10.0846106683,-4,4.8170731707,-79,0.243902439,34,-2.0731707317,-22,0.0956521739,-99,-0.4304347826,145,-0.7073170732
14921630,14941.40625,-144,0.088289393,1088,0.6670754139,-16112,9.8786020846,-4,4.8170731707,-79,0.243902439,34,-2.0731707317,-20,0.0869565217,-102,-0.4434782609,148,-0.7219512195
14922270,14960.9375,-304,0.1863887186,1264,0.774984672,-16032,9.8295524218,3,5.487804878,-90,-0.1829268293,-83,5.0609756098,-22,0.0956521739,-99,-0.4304347826,145,-0.7073170732
14922910,14980.46875,-400,0.2452483139,1344,0.8240343348,-15936,9.7706928265,3,5.487804878,-90,-0.1829268293,-83,5.0609756098,-21,0.0913043478,-98,-0.4260869565,145,-0.7073170732
14923550,15000,-352,0.2158185162,1232,0.7553648069,-15888,9.7412630288,-22,5.9756097561,-98,1.3414634146,-186,11.3414634146,-21,0.0913043478,-98,-0.4260869565,146,-0.712195122
14924190,15019.53125,-208,0.1275291232,1072,0.6572654813,-15792,9.6824034335,-24,5.7317073171,-94,1.4634146341,-281,17.1341463415,-21,0.0913043478,-98,-0.4260869565,146,-0.712195122
14924830,15039.0625,-160,0.0980993256,1072,0.6572654813,-15952,9.780502759,-24,5.7317073171,-94,1.4634146341,-281,17.1341463415,-19,0.0826086957,-98,-0.4260869565,146,-0.712195122
14925470,15058.59375,-304,0.1863887186,1248,0.7651747394,-15984,9.8001226242,-7,5.8536585366,-96,0.4268292683,-386,23.5365853659,-18,0.0782608696,-100,-0.4347826087,145,-0.7073170732
14926110,15078.125,-384,0.2354383814,1104,0.6768853464,-16112,9.8786020846,-7,5.8536585366,-96,0.4268292683,-386,23.5365853659,-19,0.0826086957,-100,-0.4347826087,146,-0.712195122
14926750,15097.65625,-192,0.1177191907,928,0.5689760883,-16192,9.9276517474,-109,7.4390243902,-122,6.6463414634,-507,30.9146341463,-19,0.0826086957,-100,-0.4347826087,146,-0.712195122
14927390,15117.1875,272,-0.1667688535,624,0.3825873697,-16224,9.9472716125,-115,8.9024390244,-146,7.012195122,-624,38.0487804878,-17,0.0739130435,-100,-0.4347826087,145,-0.7073170732
14928030,15136.71875,336,-0.2060085837,560,0.3433476395,-16096,9.8687921521,-115,8.9024390244,-146,7.012195122,-624,38.0487804878,-16,0.0695652174,-99,-0.4304347826,145,-0.7073170732
14928670,15156.25,288,-0.176578786,512,0.3139178418,-16096,9.8687921521,-106,9.4512195122,-155,6.4634146341,-770,46.9512195122,-17,0.0739130435,-93,-0.4043478261,147,-0.7170731707
14929310,15175.78125,336,-0.2060085837,176,0.1079092581,-16208,9.93746168,-106,9.4512195122,-155,6.4634146341,-770,46.9512195122,-15,0.0652173913,-90,-0.3913043478,145,-0.7073170732
14929950,15195.3125,544,-0.3335377069,96,0.0588595953,-16080,9.8589822195,-160,10.487804878,-172,9.756097561,-916,55.8536585366,-14,0.0608695652,-97,-0.4217391304,147,-0.7170731707
14930590,15214.84375,64,-0.0392397302,112,0.0686695279,-16096,9.8687921521,-167,10.7926829268,-177,10.1829268293,-1059,64.5731707317,-12,0.052173913,-93,-0.4043478261,146,-0.712195122
14931230,15234.375,288,-0.176578786,-80,-0.0490496628,-16128,9.8884120172,-167,10.7926829268,-177,10.1829268293,-1059,64.5731707317,-14,0.0608695652,-90,-0.3913043478,145,-0.7073170732
14931870,15253.90625,752,-0.4610668302,-288,-0.176578786,-16288,9.9865113427,-277,11.6463414634,-191,16.8902439024,-1211,73.8414634146,-12,0.052173913,-90,-0.3913043478,144,-0.7024390244
14932510,15273.4375,400,-0.2452483139,-464,-0.2844880441,-16304,9.9963212753,-117,11.8902439024,-195,7.1341463415,-1325,80.7926829268,-10,0.0434782609,-89,-0.3869565217,144,-0.7024390244
14933150,15292.96875,-608,0.3727774372,-528,-0.3237277744,-16528,10.1336603311,-117,11.8902439024,-195,7.1341463415,-1325,80.7926829268,-10,0.0434782609,-87,-0.3782608696,144,-0.7024390244
14933790,15312.5,-416,0.2550582465,-704,-0.4316370325,-16640,10.202329859,-186,14.0243902439,-230,11.3414634146,-1457,88.8414634146,-8,0.0347826087,-84,-0.3652173913,142,-0.6926829268
14934430,15332.03125,-112,0.0686695279,-1056,-0.6474555487,-16688,10.2317596567,-186,14.0243902439,-230,11.3414634146,-1457,88.8414634146,-7,0.0304347826,-85,-0.3695652174,145,-0.7073170732
14935070,15351.5625,-1360,0.8338442673,-1056,-0.6474555487,-16976,10.4083384427,87,15,-246,-5.3048780488,-1506,91.8292682927,-6,0.0260869565,-82,-0.3565217391,144,-0.7024390244
14935710,15371.09375,-2256,1.3832004905,-1264,-0.774984672,-16880,10.3494788473,34,18.5975609756,-305,-2.0731707317,-1579,96.2804878049,-5,0.0217391304,-78,-0.3391304348,143,-0.6975609756
14936350,15390.625,-2448,1.5009196812,-1504,-0.9221336603,-16992,10.4181483752,34,18.5975609756,-305,-2.0731707317,-1579,96.2804878049,-2,0.0086956522,-77,-0.3347826087,142,-0.6926829268
14936990,15410.15625,-2416,1.4812998161,-1728,-1.0594727161,-16800,10.3004291845,-19,21.6463414634,-355,1.1585365854,-1630,99.3902439024,-3,0.0130434783,-78,-0.3391304348,143,-0.6975609756
14937630,15429.6875,-3104,1.903126916,-1952,-1.1968117719,-16720,10.2513795218,-19,21.6463414634,-355,1.1585365854,-1630,99.3902439024,-3,0.0130434783,-73,-0.3173913043,139,-0.6780487805
14938270,15449.21875,-3568,2.1876149601,-1984,-1.216431637,-16752,10.2709993869,32,22.5,-369,-1.9512195122,-1643,100.1829268293,0,0,-72,-0.3130434783,140,-0.6829268293
14938910,15468.75,-3456,2.1189454323,-1952,-1.1968117719,-16528,10.1336603311,-85,25.1219512195,-412,5.1829268293,-1664,101.4634146341,1,-0.0043478261,-70,-0.3043478261,139,-0.6780487805
14939550,15488.28125,-3472,2.1287553648,-2144,-1.3145309626,-16256,9.9668914776,-85,25.1219512195,-412,5.1829268293,-1664,101.4634146341,1,-0.0043478261,-63,-0.2739130435,139,-0.6780487805
14940190,15507.8125,-4128,2.5309625996,-2128,-1.30472103,-15984,9.8001226242,-55,24.4512195122,-401,3.3536585366,-1646,100.3658536585,3,-0.0130434783,-59,-0.2565217391,140,-0.6829268293
14940830,15527.34375,-4432,2.7173513182,-2000,-1.2262415696,-15728,9.6431637032,-399,24.2682926829,-398,24.3292682927,-1677,102.256097561,2,-0.0086956522,-64,-0.2782608696,139,-0.6780487805
14941470,15546.875,-3856,2.3641937462,-1904,-1.1673819742,-15824,9.7020232986,-399,24.2682926829,-398,24.3292682927,-1677,102.256097561,4,-0.0173913043,-62,-0.2695652174,140,-0.6829268293
14942110,15566.40625,-3264,2.0012262416,-1792,-1.0987124464,-15632,9.5843041079,-348,24.0243902439,-394,21.2195121951,-1673,102.012195122,3,-0.0130434783,-56,-0.2434782609,141,-0.687804878
14942750,15585.9375,-3360,2.0600858369,-1808,-1.1085223789,-15408,9.4469650521,-348,24.0243902439,-394,21.2195121951,-1673,102.012195122,3,-0.0130434783,-50,-0.2173913043,139,-0.6780487805
14943390,15605.46875,-3920,2.4034334764,-1840,-1.128142244,-15008,9.2017167382,-103,22.8658536585,-375,6.2804878049,-1673,102.012195122,5,-0.0217391304,-55,-0.2391304348,141,-0.687804878
14944030,15625,-4144,2.5407725322,-1744,-1.0692826487,-14608,8.9564684243,-70,20.6707317073,-339,4.2682926829,-1663,101.4024390244,3,-0.0130434783,-45,-0.1956521739,140,-0.6829268293
14944670,15644.53125,-3904,2.3936235438,-1856,-1.1379521766,-14704,9.0153280196,-70,20.6707317073,-339,4.2682926829,-1663,101.4024390244,5,-0.0217391304,-47,-0.2043478261,138,-0.6731707317
14945310,15664.0625,-4480,2.7467811159,-1776,-1.0889025138,-14848,9.1036174126,-24,17.5,-287,1.4634146341,-1580,96.3414634146,6,-0.0260869565,-45,-0.1956521739,138,-0.6731707317
14945950,15683.59375,-4912,3.0116492949,-1728,-1.0594727161,-15072,9.2409564684,-24,17.5,-287,1.4634146341,-1580,96.3414634146,5,-0.0217391304,-44,-0.1913043478,140,-0.6829268293
14946590,15703.125,-4656,2.854690374,-1792,-1.0987124464,-15232,9.339055794,-204,14.0243902439,-230,12.4390243902,-1511,92.1341463415,3,-0.0130434783,-42,-0.1826086957,139,-0.6780487805
14947230,15722.65625,-4144,2.5407725322,-1952,-1.1968117719,-15312,9.3881054568,-192,10.4268292683,-171,11.7073170732,-1428,87.0731707317,6,-0.0260869565,-39,-0.1695652174,139,-0.6780487805
14947870,15742.1875,-4112,2.5211526671,-1728,-1.0594727161,-15632,9.5843041079,-192,10.4268292683,-171,11.7073170732,-1428,87.0731707317,4,-0.0173913043,-36,-0.1565217391,138,-0.6731707317
14948510,15761.71875,-4272,2.6192519926,-1824,-1.1183323115,-15904,9.7510729614,-129,8.7804878049,-144,7.8658536585,-1349,82.256097561,2,-0.0086956522,-37,-0.1608695652,140,-0.6829268293
14949150,15781.25,-3792,2.3249540159,-1984,-1.216431637,-15920,9.7608828939,-129,8.7804878049,-144,7.8658536585,-1349,82.256097561,1,-0.0043478261,-32,-0.1391304348,138,-0.6731707317
14949790,15800.78125,-3696,2.2660944206,-1920,-1.1771919068,-15904,9.7510729614,-123,8.3536585366,-137,7.5,-1312,80,3,-0.0130434783,-34,-0.147826087,139,-0.6780487805
14950430,15820.3125,-3936,2.413243409,-1824,-1.1183323115,-16224,9.9472716125,-128,9.2073170732,-151,7.8048780488,-1311,79.9390243902,3,-0.0130434783,-31,-0.1347826087,139,-0.6780487805
14951070,15839.84375,-3856,2.3641937462,-1968,-1.2066217045,-16336,10.0159411404,-128,9.2073170732,-151,7.8048780488,-1311,79.9390243902,0,0,-22,-0.0956521739,138,-0.6731707317
14951710,15859.375,-3616,2.2170447578,-2096,-1.2851011649,-16304,9.9963212753,-151,10.243902439,-168,9.2073170732,-1318,80.3658536585,-1,0.0043478261,-20,-0.0869565217,140,-0.6829268293
14952350,15878.90625,-3616,2.2170447578,-2016,-1.2360515021,-16272,9.9767014102,-113,11.6463414634,-191,6.8902439024,-1303,79.4512195122,0,0,-26,-0.1130434783,140,-0.6829268293
14952990,15898.4375,-3472,2.1287553648,-1824,-1.1183323115,-16224,9.9472716125,-113,11.6463414634,-191,6.8902439024,-1303,79.4512195122,-3,0.0130434783,-24,-0.1043478261,139,-0.6780487805
14953630,15917.96875,-3520,2.1581851625,-1904,-1.1673819742,-16192,9.9276517474,25,11.9512195122,-196,-1.5243902439,-1270,77.4390243902,-4,0.0173913043,-18,-0.0782608696,139,-0.6780487805
14954270,15937.5,-3792,2.3249540159,-1984,-1.216431637,-16032,9.8295524218,25,11.9512195122,-196,-1.5243902439,-1270,77.4390243902,-3,0.0130434783,-16,-0.0695652174,137,-0.6682926829
14954910,15957.03125,-3856,2.3641937462,-1920,-1.1771919068,-15952,9.780502759,-91,11.5853658537,-190,5.5487804878,-1236,75.3658536585,-4,0.0173913043,-12,-0.052173913,139,-0.6780487805
14955550,15976.5625,-3328,2.0404659718,-1680,-1.0300429185,-16144,9.8982219497,-64,11.4024390244,-187,3.9024390244,-1171,71.4024390244,-5,0.0217391304,-9,-0.0391304348,135,-0.6585365854
14956190,15996.09375,-2544,1.5597792765,-1440,-0.8828939301,-16336,10.0159411404,-64,11.4024390244,-187,3.9024390244,-1171,71.4024390244,-7,0.0304347826,-10,-0.0434782609,137,-0.6682926829
14956830,16015.625,-2592,1.5892090742,-1328,-0.8142244022,-16736,10.2611894543,238,9.2682926829,-152,-14.512195122,-1127,68.7195121951,-5,0.0217391304,-9,-0.0391304348,137,-0.6682926829
14957470,16035.15625,-3184,1.9521765788,-1792,-1.0987124464,-16960,10.3985285101,238,9.2682926829,-152,-14.512195122,-1127,68.7195121951,-7,0.0304347826,-8,-0.0347826087,135,-0.6585365854
14958110,16054.6875,-3856,2.3641937462,-2176,-1.3341508277,-16720,10.2513795218,198,12.3780487805,-203,-12.0731707317,-1070,65.243902439,-7,0.0304347826,-7,-0.0304347826,135,-0.6585365854
14958750,16074.21875,-3792,2.3249540159,-2208,-1.3537706928,-16752,10.2709993869,3,17.3780487805,-285,-0.1829268293,-1095,66.7682926829,-7,0.0304347826,-3,-0.0130434783,136,-0.6634146341
14959390,16093.75,-3328,2.0404659718,-2352,-1.4420600858,-16800,10.3004291845,3,17.3780487805,-285,-0.1829268293,-1095,66.7682926829,-10,0.0434782609,-1,-0.0043478261,135,-0.6585365854
14960030,16113.28125,-3952,2.4230533415,-2128,-1.30472103,-16336,10.0159411404,205,21.2195121951,-348,-12.5,-1155,70.4268292683,-8,0.0347826087,-1,-0.0043478261,135,-0.6585365854
14960670,16132.8125,-5152,3.1587982833,-2064,-1.2654812998,-15824,9.7020232986,205,21.2195121951,-348,-12.5,-1155,70.4268292683,-9,0.0391304348,-2,-0.0086956522,135,-0.6585365854
14961310,16152.34375,-6336,3.8847332925,-1904,-1.1673819742,-15472,9.4862047823,207,25.8536585366,-424,-12.6219512195,-1191,72.6219512195,-8,0.0347826087,-5,-0.0217391304,134,-0.6536585366
14961950,16171.875,-6704,4.1103617413,-1600,-0.9809932557,-15056,9.2311465359,69,28.9024390244,-474,-4.2073170732,-1142,69.6341463415,-8,0.0347826087,-3,-0.0130434783,136,-0.6634146341
14962590,16191.40625,-6768,4.1496014715,-1296,-0.7946045371,-14672,8.9957081545,69,28.9024390244,-474,-4.2073170732,-1142,69.6341463415,-11,0.047826087,2,0.0086956522,137,-0.6682926829
14963230,16210.9375,-7616,4.669527897,-1008,-0.6180257511,-14304,8.7700797057,152,25.9756097561,-426,-9.2682926829,-1009,61.5243902439,-11,0.047826087,2,0.0086956522,136,-0.6634146341
14963870,16230.46875,-8640,5.2973635806,-560,-0.3433476395,-13760,8.4365419988,30,20,-328,-1.8292682927,-812,49.512195122,-10,0.0434782609,2,0.0086956522,135,-0.6585365854
14964510,16250,-8512,5.2188841202,-384,-0.2354383814,-13808,8.4659717964,30,20,-328,-1.8292682927,-812,49.512195122,-10,0.0434782609,0,0,136,-0.6634146341
14965150,16269.53125,-8464,5.1894543225,-240,-0.1471489884,-13808,8.4659717964,80,13.9024390244,-228,-4.8780487805,-569,34.6951219512,-11,0.047826087,4,0.0173913043,134,-0.6536585366
14965790,16289.0625,-8672,5.3169834457,-112,-0.0686695279,-13760,8.4365419988,80,13.9024390244,-228,-4.8780487805,-569,34.6951219512,-12,0.052173913,4,0.0173913043,134,-0.6536585366
14966430,16308.59375,-8720,5.3464132434,-16,-0.0098099326,-13328,8.1716738197,101,7.1341463415,-117,-6.1585365854,-328,20,-12,0.052173913,4,0.0173913043,136,-0.6634146341
14967070,16328.125,-9024,5.532801962,0,0,-13488,8.2697731453,126,0.243902439,-4,-7.6829268293,-115,7.012195122,-11,0.047826087,5,0.0217391304,135,-0.6585365854
14967710,16347.65625,-8688,5.3267933783,-208,-0.1275291232,-13920,8.5346413243,126,0.243902439,-4,-7.6829268293,-115,7.012195122,-11,0.047826087,5,0.0217391304,135,-0.6585365854
14968350,16367.1875,-8064,4.9442060086,-320,-0.1961986511,-14176,8.6916002452,101,-0.9756097561,16,-6.1585365854,34,-2.0731707317,-15,0.0652173913,2,0.0086956522,135,-0.6585365854
14968990,16386.71875,-7888,4.8362967505,-480,-0.2942979767,-14496,8.8877988964,101,-0.9756097561,16,-6.1585365854,34,-2.0731707317,-13,0.0565217391,2,0.0086956522,135,-0.6585365854
14969630,16406.25,-7824,4.7970570202,-688,-0.4218270999,-14592,8.9466584917,174,-4.0243902439,66,-10.6097560976,216,-13.1707317073,-11,0.047826087,2,0.0086956522,134,-0.6536585366
14970270,16425.78125,-7936,4.8657265481,-624,-0.3825873697,-14608,8.9564684243,192,-8.2317073171,135,-11.7073170732,427,-26.0365853659,-11,0.047826087,2,0.0086956522,134,-0.6536585366
14970910,16445.3125,-7792,4.7774371551,-704,-0.4316370325,-14752,9.0447578173,192,-8.2317073171,135,-11.7073170732,427,-26.0365853659,-11,0.047826087,8,0.0347826087,135,-0.6585365854
14971550,16464.84375,-7664,4.6989576947,-736,-0.4512568976,-14832,9.0938074801,171,-12.743902439,209,-10.4268292683,603,-36.7682926829,-11,0.047826087,3,0.0130434783,133,-0.6487804878
14972190,16484.375,-7856,4.8166768853,-880,-0.5395462906,-14864,9.1134273452,171,-12.743902439,209,-10.4268292683,603,-36.7682926829,-8,0.0347826087,1,0.0043478261,133,-0.6487804878
14972830,16503.90625,-7792,4.7774371551,-1040,-0.6376456162,-14976,9.1820968731,208,-14.5731707317,239,-12.6829268293,732,-44.6341463415,-7,0.0304347826,1,0.0043478261,132,-0.643902439
14973470,16523.4375,-7696,4.7185775598,-1440,-0.8828939301,-15040,9.2213366033,260,-16.2195121951,266,-15.8536585366,871,-53.1097560976,-8,0.0347826087,1,0.0043478261,132,-0.643902439
14974110,16542.96875,-7760,4.75781729,-1312,-0.8044144697,-15264,9.3586756591,260,-16.2195121951,266,-15.8536585366,871,-53.1097560976,-6,0.0260869565,0,0,129,-0.6292682927
14974750,16562.5,-8016,4.9147762109,-1360,-0.8338442673,-15216,9.3292458614,274,-16.9512195122,278,-16.7073170732,993,-60.5487804878,-3,0.0130434783,-3,-0.0130434783,132,-0.643902439
14975390,16582.03125,-8256,5.0619251993,-1408,-0.863274065,-15152,9.2900061312,139,-17.6219512195,289,-8.4756097561,1058,-64.512195122,-2,0.0086956522,-3,-0.0130434783,132,-0.643902439
14976030,16601.5625,-7936,4.8657265481,-1504,-0.9221336603,-15248,9.3488657265,139,-17.6219512195,289,-8.4756097561,1058,-64.512195122,-3,0.0130434783,0,0,130,-0.6341463415
14976670,16621.09375,-7680,4.7087676272,-1648,-1.0104230533,-15280,9.3684855917,209,-18.1707317073,298,-12.743902439,1182,-72.0731707317,-1,0.0043478261,-4,-0.0173913043,129,-0.6292682927
14977310,16640.625,-7840,4.8068669528,-1920,-1.1771919068,-15088,9.250766401,209,-18.1707317073,298,-12.743902439,1182,-72.0731707317,-2,0.0086956522,-4,-0.0173913043,130,-0.6341463415
14977950,16660.15625,-7888,4.8362967505,-2064,-1.2654812998,-15184,9.3096259963,269,-20.243902439,332,-16.4024390244,1314,-80.1219512195,0,0,-9,-0.0391304348,129,-0.6292682927
14978590,16679.6875,-7600,4.6597179644,-2192,-1.3439607603,-15312,9.3881054568,219,-21.5853658537,354,-13.3536585366,1414,-86.2195121951,3,-0.0130434783,-10,-0.0434782609,127,-0.6195121951
14979230,16699.21875,-7552,4.6302881668,-2336,-1.4322501533,-15072,9.2409564684,219,-21.5853658537,354,-13.3536585366,1414,-86.2195121951,3,-0.0130434783,-13,-0.0565217391,128,-0.6243902439
14979870,16718.75,-7664,4.6989576947,-2592,-1.5892090742,-15072,9.2409564684,127,-22.9268292683,376,-7.743902439,1507,-91.8902439024,4,-0.0173913043,-12,-0.052173913,126,-0.6146341463
14980510,16738.28125,-7200,4.4144696505,-2672,-1.638258737,-15360,9.4175352544,127,-22.9268292683,376,-7.743902439,1507,-91.8902439024,5,-0.0217391304,-14,-0.0608695652,127,-0.6195121951
14981150,16757.8125,-6640,4.071122011,-2736,-1.6774984672,-15216,9.3292458614,37,-22.9268292683,376,-2.256097561,1585,-96.6463414634,7,-0.0304347826,-20,-0.0869565217,127,-0.6195121951
14981790,16777.34375,-6608,4.0515021459,-2736,-1.6774984672,-15024,9.2115266708,106,-23.7804878049,390,-6.4634146341,1645,-100.3048780488,6,-0.0260869565,-13,-0.0565217391,126,-0.6146341463
14982430,16796.875,-6576,4.0318822808,-2944,-1.8050275904,-15392,9.4371551196,106,-23.7804878049,390,-6.4634146341,1645,-100.3048780488,7,-0.0304347826,-19,-0.0826086957,126,-0.6146341463
14983070,16816.40625,-6288,3.8553034948,-2848,-1.7461679951,-15328,9.3979153893,11,-24.0853658537,395,-0.6707317073,1687,-102.8658536585,8,-0.0347826087,-24,-0.1043478261,128,-0.6243902439
14983710,16835.9375,-6080,3.7277743716,-2880,-1.7657878602,-14688,9.0055180871,-61,-23.3536585366,383,3.7195121951,1701,-103.7195121951,8,-0.0347826087,-27,-0.1173913043,127,-0.6195121951
14984350,16855.46875,-5648,3.4629061925,-3200,-1.9619865113,-14976,9.1820968731,-61,-23.3536585366,383,3.7195121951,1701,-103.7195121951,11,-0.047826087,-32,-0.1391304348,128,-0.6243902439
14984990,16875,-4832,2.9625996321,-2960,-1.814837523,-15520,9.51563458,-2,-26.2195121951,430,0.1219512195,1719,-104.8170731707,8,-0.0347826087,-30,-0.1304347826,128,-0.6243902439
14985630,16894.53125,-5024,3.0803188228,-2816,-1.72654813,-15264,9.3586756591,-2,-26.2195121951,430,0.1219512195,1719,-104.8170731707,12,-0.052173913,-35,-0.152173913,129,-0.6292682927
14986270,16914.0625,-5200,3.1882280809,-2880,-1.7657878602,-14608,8.9564684243,80,-23.5365853659,386,-4.8780487805,1724,-105.1219512195,10,-0.0434782609,-33,-0.1434782609,126,-0.6146341463
14986910,16933.59375,-4736,2.9037400368,-3024,-1.8540772532,-14912,9.1428571429,74,-26.2804878049,431,-4.512195122,1691,-103.1097560976,11,-0.047826087,-41,-0.1782608696,129,-0.6292682927
14987550,16953.125,-4080,2.501532802,-2880,-1.7657878602,-15184,9.3096259963,74,-26.2804878049,431,-4.512195122,1691,-103.1097560976,12,-0.052173913,-41,-0.1782608696,130,-0.6341463415
14988190,16972.65625,-4096,2.5113427345,-2704,-1.6578786021,-14624,8.9662783568,188,-25.487804878,418,-11.4634146341,1654,-100.8536585366,9,-0.0391304348,-42,-0.1826086957,129,-0.6292682927
14988830,16992.1875,-4576,2.8056407112,-2608,-1.5990190067,-14736,9.0349478847,188,-25.487804878,418,-11.4634146341,1654,-100.8536585366,9,-0.0391304348,-47,-0.2043478261,128,-0.6243902439
14989470,17011.71875,-4496,2.7565910484,-2688,-1.6480686695,-15360,9.4175352544,126,-27.6219512195,453,-7.6829268293,1629,-99.3292682927,9,-0.0391304348,-48,-0.2086956522,129,-0.6292682927
14990110,17031.25,-4544,2.7860208461,-2608,-1.5990190067,-15312,9.3881054568,-36,-27.8048780488,456,2.1951219512,1616,-98.5365853659,10,-0.0434782609,-52,-0.2260869565,129,-0.6292682927
14990750,17050.78125,-4496,2.7565910484,-2320,-1.4224402207,-15168,9.2998160638,-36,-27.8048780488,456,2.1951219512,1616,-98.5365853659,11,-0.047826087,-57,-0.247826087,132,-0.643902439
14991390,17070.3125,-3792,2.3249540159,-2544,-1.5597792765,-15792,9.6824034335,-152,-28.7804878049,472,9.2682926829,1606,-97.9268292683,9,-0.0391304348,-52,-0.2260869565,132,-0.643902439
14992030,17089.84375,-3568,2.1876149601,-2256,-1.3832004905,-16224,9.9472716125,-152,-28.7804878049,472,9.2682926829,1606,-97.9268292683,9,-0.0391304348,-53,-0.2304347826,131,-0.6390243902
14992670,17109.375,-4080,2.501532802,-2096,-1.2851011649,-15904,9.7510729614,-77,-27.5,451,4.6951219512,1602,-97.6829268293,9,-0.0391304348,-58,-0.252173913,131,-0.6390243902
14993310,17128.90625,-3600,2.2072348253,-2176,-1.3341508277,-15984,9.8001226242,-188,-25.1829268293,413,11.4634146341,1530,-93.2926829268,8,-0.0347826087,-61,-0.2652173913,134,-0.6536585366
14993950,17148.4375,-2768,1.6971183323,-2336,-1.4322501533,-16352,10.025751073,-188,-25.1829268293,413,11.4634146341,1530,-93.2926829268,6,-0.0260869565,-65,-0.2826086957,135,-0.6585365854
14994590,17167.96875,-3056,1.8736971183,-2112,-1.2949110975,-16400,10.0551808706,-30,-22.9268292683,376,1.8292682927,1474,-89.8780487805,7,-0.0304347826,-67,-0.2913043478,134,-0.6536585366
14995230,17187.5,-3840,2.3543838136,-1776,-1.0889025138,-16144,9.8982219497,-146,-18.7804878049,308,8.9024390244,1357,-82.743902439,6,-0.0260869565,-65,-0.2826086957,135,-0.6585365854
14995870,17207.03125,-3200,1.9619865113,-1936,-1.1870018394,-16288,9.9865113427,-146,-18.7804878049,308,8.9024390244,1357,-82.743902439,4,-0.0173913043,-72,-0.3130434783,138,-0.6731707317
14996510,17226.5625,-3008,1.8442673207,-1840,-1.128142244,-16448,10.0846106683,-136,-17.0731707317,280,8.2926829268,1309,-79.8170731707,4,-0.0173913043,-72,-0.3130434783,137,-0.6682926829
14997150,17246.09375,-3904,2.3936235438,-1536,-0.9417535254,-16160,9.9080318823,-136,-17.0731707317,280,8.2926829268,1309,-79.8170731707,-1,0.0043478261,-69,-0.3,137,-0.6682926829
14997790,17265.625,-3248,1.991416309,-1456,-0.8927038627,-16512,10.1238503985,-274,-13.9024390244,228,16.7073170732,1242,-75.7317073171,0,0,-79,-0.3434782609,140,-0.6829268293
14998430,17285.15625,-2336,1.4322501533,-1552,-0.951563458,-16560,10.1532801962,-134,-12.9268292683,212,8.1707317073,1235,-75.3048780488,-1,0.0043478261,-76,-0.3304347826,140,-0.6829268293
14999070,17304.6875,-3312,2.0306560392,-1392,-0.8534641324,-16224,9.9472716125,-134,-12.9268292683,212,8.1707317073,1235,-75.3048780488,-4,0.0173913043,-76,-0.3304347826,140,-0.6829268293
14999710,17324.21875,-3536,2.167995095,-960,-0.5885959534,-15888,9.7412630288,-285,-9.8170731707,161,17.3780487805,1164,-70.9756097561,-2,0.0086956522,-84,-0.3652173913,142,-0.6926829268
15000350,17343.75,-2176,1.3341508277,-992,-0.6082158185,-15840,9.7118332311,-285,-9.8170731707,161,17.3780487805,1164,-70.9756097561,-5,0.0217391304,-82,-0.3565217391,143,-0.6975609756
15000990,17363.28125,-2352,1.4420600858,-1008,-0.6180257511,-15600,9.5646842428,-205,-9.1463414634,150,12.5,1128,-68.7804878049,-8,0.0347826087,-80,-0.347826087,141,-0.687804878
15001630,17382.8125,-3424,2.0993255671,-576,-0.353157572,-15200,9.3194359289,-350,-9.5731707317,157,21.3414634146,1055,-64.3292682927,-6,0.0260869565,-86,-0.3739130435,144,-0.7024390244
15002270,17402.34375,-1584,0.9711833231,-640,-0.3923973023,-15536,9.5254445126,-350,-9.5731707317,157,21.3414634146,1055,-64.3292682927,-9,0.0391304348,-88,-0.3826086957,145,-0.7073170732
15002910,17421.875,-528,0.3237277744,-912,-0.5591661557,-15680,9.6137339056,-155,-11.5243902439,189,9.4512195122,1065,-64.9390243902,-11,0.047826087,-82,-0.3565217391,145,-0.7073170732
15003550,17441.40625,-1744,1.0692826487,-560,-0.3433476395,-15760,9.6627835684,-155,-11.5243902439,189,9.4512195122,1065,-64.9390243902,-12,0.052173913,-90,-0.3913043478,146,-0.712195122
15004190,17460.9375,-1392,0.8534641324,-368,-0.2256284488,-15904,9.7510729614,8,-13.6585365854,224,-0.487804878,1021,-62.256097561,-15,0.0652173913,-84,-0.3652173913,146,-0.712195122
15004830,17480.46875,-112,0.0686695279,-320,-0.1961986511,-16224,9.9472716125,-23,-11.8902439024,195,1.4024390244,937,-57.1341463415,-14,0.0608695652,-89,-0.3869565217,145,-0.7073170732
15005470,17500,240,-0.1471489884,-304,-0.1863887186,-16352,10.025751073,-23,-11.8902439024,195,1.4024390244,937,-57.1341463415,-13,0.0565217391,-90,-0.3913043478,147,-0.7170731707
15006110,17519.53125,-368,0.2256284488,-176,-0.1079092581,-16448,10.0846106683,230,-11.2804878049,185,-14.0243902439,832,-50.7317073171,-15,0.0652173913,-92,-0.4,148,-0.7219512195
15006750,17539.0625,-720,0.4414469651,-32,-0.0196198651,-16624,10.1925199264,-3,-7.5609756098,124,0.1829268293,634,-38.6585365854,-17,0.0739130435,-93,-0.4043478261,148,-0.7219512195
15007390,17558.59375,-304,0.1863887186,-16,-0.0098099326,-16688,10.2317596567,-3,-7.5609756098,124,0.1829268293,634,-38.6585365854,-16,0.0695652174,-91,-0.3956521739,148,-0.7219512195
15008030,17578.125,48,-0.0294297977,16,0.0098099326,-16480,10.1042305334,-102,-2.8658536585,47,6.2195121951,480,-29.2682926829,-17,0.0739130435,-95,-0.4130434783,147,-0.7170731707
15008670,17597.65625,-64,0.0392397302,96,0.0588595953,-16608,10.1827099939,-102,-2.8658536585,47,6.2195121951,480,-29.2682926829,-19,0.0826086957,-96,-0.4173913043,149,-0.7268292683
15009310,17617.1875,-32,0.0196198651,144,0.088289393,-16656,10.2121397915,-120,-1.2804878049,21,7.3170731707,343,-20.9146341463,-20,0.0869565217,-94,-0.4086956522,147,-0.7170731707
15009950,17636.71875,-144,0.088289393,256,0.1569589209,-16336,10.0159411404,-125,0.7317073171,-12,7.6219512195,234,-14.2682926829,-18,0.0782608696,-96,-0.4173913043,148,-0.7219512195
15010590,17656.25,-176,0.1079092581,400,0.2452483139,-16224,9.9472716125,-125,0.7317073171,-12,7.6219512195,234,-14.2682926829,-20,0.0869565217,-96,-0.4173913043,150,-0.7317073171
15011230,17675.78125,-96,0.0588595953,384,0.2354383814,-16192,9.9276517474,-160,1.2195121951,-20,9.756097561,123,-7.5,-22,0.0956521739,-93,-0.4043478261,150,-0.7317073171
15011870,17695.3125,272,-0.1667688535,368,0.2256284488,-16000,9.8099325567,-160,1.2195121951,-20,9.756097561,123,-7.5,-22,0.0956521739,-93,-0.4043478261,151,-0.7365853659
15012510,17714.84375,848,-0.5199264255,352,0.2158185162,-15968,9.7903126916,-177,1.4024390244,-23,10.7926829268,-3,0.1829268293,-21,0.0913043478,-96,-0.4173913043,150,-0.7317073171
15013150,17734.375,1216,-0.7455548743,192,0.1177191907,-16240,9.9570815451,-52,1.2195121951,-20,3.1707317073,-100,6.0975609756,-20,0.0869565217,-95,-0.4130434783,151,-0.7365853659
15013790,17753.90625,960,-0.5885959534,272,0.1667688535,-16656,10.2121397915,-52,1.2195121951,-20,3.1707317073,-100,6.0975609756,-22,0.0956521739,-95,-0.4130434783,150,-0.7317073171
15014430,17773.4375,1168,-0.7161250766,80,0.0490496628,-16896,10.3592887799,-233,1.7073170732,-28,14.2073170732,-258,15.7317073171,-22,0.0956521739,-94,-0.4086956522,149,-0.7268292683
15015070,17792.96875,2128,-1.30472103,160,0.0980993256,-16864,10.3396689148,-233,1.7073170732,-28,14.2073170732,-258,15.7317073171,-21,0.0913043478,-96,-0.4173913043,152,-0.7414634146
15015710,17812.5,2656,-1.6284488044,128,0.0784794605,-16768,10.2808093194,-317,7.3780487805,-121,19.3292682927,-455,27.743902439,-21,0.0913043478,-95,-0.4130434783,152,-0.7414634146
15016350,17832.03125,2304,-1.4126302882,-32,-0.0196198651,-16752,10.2709993869,-22,8.7195121951,-143,1.3414634146,-621,37.8658536585,-20,0.0869565217,-91,-0.3956521739,151,-0.7365853659
15016990,17851.5625,1984,-1.216431637,-144,-0.088289393,-16992,10.4181483752,-22,8.7195121951,-143,1.3414634146,-621,37.8658536585,-18,0.0782608696,-90,-0.3913043478,150,-0.7317073171
15017630,17871.09375,1568,-0.9613733906,-96,-0.0588595953,-17088,10.4770079706,-9,11.5243902439,-189,0.5487804878,-813,49.5731707317,-21,0.0913043478,-91,-0.3956521739,150,-0.7317073171
15018270,17890.625,1488,-0.9123237278,-176,-0.1079092581,-17120,10.4966278357,-70,14.0853658537,-231,4.2682926829,-951,57.987804878,-19,0.0826086957,-90,-0.3913043478,150,-0.7317073171
15018910,17910.15625,1056,-0.6474555487,-448,-0.2746781116,-16912,10.3690987124,-70,14.0853658537,-231,4.2682926829,-951,57.987804878,-17,0.0739130435,-91,-0.3956521739,149,-0.7268292683
15019550,17929.6875,768,-0.4708767627,-704,-0.4316370325,-16752,10.2709993869,-234,16.7073170732,-274,14.2682926829,-1117,68.1097560976,-18,0.0782608696,-89,-0.3869565217,149,-0.7268292683
15020190,17949.21875,1152,-0.7063151441,-992,-0.6082158185,-16608,10.1827099939,-234,16.7073170732,-274,14.2682926829,-1117,68.1097560976,-18,0.0782608696,-84,-0.3652173913,149,-0.7268292683
15020830,17968.75,800,-0.4904966278,-1008,-0.6180257511,-16864,10.3396689148,-83,17.0731707317,-280,5.0609756098,-1248,76.0975609756,-16,0.0695652174,-84,-0.3652173913,150,-0.7317073171
15021470,17988.28125,64,-0.0392397302,-896,-0.5493562232,-16752,10.2709993869,-196,19.8170731707,-325,11.9512195122,-1370,83.5365853659,-13,0.0565217391,-86,-0.3739130435,148,-0.7219512195
15022110,18007.8125,-624,0.3825873697,-864,-0.5297363581,-16384,10.0453709381,-196,19.8170731707,-325,11.9512195122,-1370,83.5365853659,-15,0.0652173913,-84,-0.3652173913,148,-0.7219512195
15022750,18027.34375,-432,0.264868179,-1072,-0.6572654813,-16384,10.0453709381,-315,20.6707317073,-339,19.2073170732,-1454,88.6585365854,-13,0.0565217391,-80,-0.347826087,149,-0.7268292683
15023390,18046.875,64,-0.0392397302,-1296,-0.7946045371,-16288,9.9865113427,-315,20.6707317073,-339,19.2073170732,-1454,88.6585365854,-13,0.0565217391,-77,-0.3347826087,149,-0.7268292683
15024030,18066.40625,-416,0.2550582465,-1296,-0.7946045371,-16224,9.9472716125,-64,19.3902439024,-318,3.9024390244,-1488,90.7317073171,-9,0.0391304348,-79,-0.3434782609,150,-0.7317073171
15024670,18085.9375,-992,0.6082158185,-1424,-0.8730839975,-16176,9.9178418148,-48,18.9024390244,-310,2.9268292683,-1532,93.4146341463,-8,0.0347826087,-79,-0.3434782609,148,-0.7219512195
15025310,18105.46875,-1200,0.7357449418,-1632,-1.0006131208,-16096,9.8687921521,-48,18.9024390244,-310,2.9268292683,-1532,93.4146341463,-9,0.0391304348,-74,-0.3217391304,146,-0.712195122
15025950,18125,-1392,0.8534641324,-1792,-1.0987124464,-15760,9.6627835684,-80,18.8414634146,-309,4.8780487805,-1567,95.5487804878,-6,0.0260869565,-70,-0.3043478261,145,-0.7073170732
15026590,18144.53125,-1424,0.8730839975,-1808,-1.1085223789,-15536,9.5254445126,-122,17.6829268293,-290,7.4390243902,-1610,98.1707317073,-5,0.0217391304,-73,-0.3173913043,149,-0.7268292683
15027230,18164.0625,-1216,0.7455548743,-1728,-1.0594727161,-15472,9.4862047823,-122,17.6829268293,-290,7.4390243902,-1610,98.1707317073,-4,0.0173913043,-69,-0.3,148,-0.7219512195
15027870,18183.59375,-1424,0.8730839975,-1776,-1.0889025138,-15232,9.339055794,-72,15.9756097561,-262,4.3902439024,-1654,100.8536585366,-3,0.0130434783,-66,-0.2869565217,146,-0.712195122
15028510,18203.125,-1376,0.8436541999,-2160,-1.3243408952,-15088,9.250766401,-72,15.9756097561,-262,4.3902439024,-1654,100.8536585366,-2,0.0086956522,-64,-0.2782608696,146,-0.712195122
15029150,18222.65625,-1360,0.8338442673,-2064,-1.2654812998,-15392,9.4371551196,73,13.9024390244,-228,-4.4512195122,-1680,102.4390243902,-3,0.0130434783,-63,-0.2739130435,146,-0.712195122
15029790,18242.1875,-1904,1.1673819742,-2064,-1.2654812998,-15680,9.6137339056,195,12.6219512195,-207,-11.8902439024,-1641,100.0609756098,-4,0.0173913043,-57,-0.247826087,143,-0.6975609756
15030430,18261.71875,-2976,1.8246474555,-2192,-1.3439607603,-15792,9.6824034335,195,12.6219512195,-207,-11.8902439024,-1641,100.0609756098,-1,0.0043478261,-55,-0.2391304348,142,-0.6926829268
15031070,18281.25,-3328,2.0404659718,-2368,-1.4518700184,-15680,9.6137339056,-120,13.5975609756,-223,7.3170731707,-1668,101.7073170732,1,-0.0043478261,-57,-0.247826087,143,-0.6975609756
15031710,18300.78125,-2624,1.6088289393,-2384,-1.461679951,-15776,9.6725935009,-120,13.5975609756,-223,7.3170731707,-1668,101.7073170732,1,-0.0043478261,-52,-0.2260869565,144,-0.7024390244
15032350,18320.3125,-2544,1.5597792765,-2304,-1.4126302882,-15904,9.7510729614,-36,12.8048780488,-210,2.1951219512,-1654,100.8536585366,0,0,-46,-0.2,144,-0.7024390244
15032990,18339.84375,-3264,2.0012262416,-2416,-1.4812998161,-15840,9.7118332311,38,12.5609756098,-206,-2.3170731707,-1670,101.8292682927,0,0,-47,-0.2043478261,142,-0.6926829268
15033630,18359.375,-3872,2.3740036787,-2624,-1.6088289393,-15856,9.7216431637,38,12.5609756098,-206,-2.3170731707,-1670,101.8292682927,2,-0.0086956522,-47,-0.2043478261,144,-0.7024390244
15034270,18378.90625,-3872,2.3740036787,-2624,-1.6088289393,-15824,9.7020232986,-93,12.3170731707,-202,5.6707317073,-1650,100.6097560976,1,-0.0043478261,-42,-0.1826086957,143,-0.6975609756
15034910,18398.4375,-3808,2.3347639485,-2464,-1.5107296137,-15920,9.7608828939,-93,12.3170731707,-202,5.6707317073,-1650,100.6097560976,1,-0.0043478261,-39,-0.1695652174,142,-0.6926829268
15035550,18417.96875,-3824,2.3445738811,-2448,-1.5009196812,-16032,9.8295524218,-72,12.256097561,-201,4.3902439024,-1592,97.0731707317,2,-0.0086956522,-41,-0.1782608696,143,-0.6975609756
15036190,18437.5,-3920,2.4034334764,-2496,-1.5303494788,-15760,9.6627835684,-87,12.5,-205,5.3048780488,-1576,96.0975609756,2,-0.0086956522,-33,-0.1434782609,142,-0.6926829268
15036830,18457.03125,-3808,2.3347639485,-2640,-1.6186388719,-15680,9.6137339056,-87,12.5,-205,5.3048780488,-1576,96.0975609756,-1,0.0043478261,-31,-0.1347826087,140,-0.6829268293
15037470,18476.5625,-4144,2.5407725322,-2400,-1.4714898835,-15856,9.7216431637,38,11.4024390244,-187,-2.3170731707,-1511,92.1341463415,1,-0.0043478261,-30,-0.1304347826,142,-0.6926829268
15038110,18496.09375,-4544,2.7860208461,-2320,-1.4224402207,-15600,9.5646842428,-110,12.3170731707,-202,6.7073170732,-1467,89.4512195122,1,-0.0043478261,-30,-0.1304347826,142,-0.6926829268
15038750,18515.625,-4368,2.678111588,-2528,-1.549969344,-15408,9.4469650521,-110,12.3170731707,-202,6.7073170732,-1467,89.4512195122,0,0,-27,-0.1173913043,140,-0.6829268293
15039390,18535.15625,-3920,2.4034334764,-2384,-1.461679951,-15552,9.5352544451,-82,11.3414634146,-186,5,-1426,86.9512195122,0,0,-25,-0.1086956522,140,-0.6829268293
15040030,18554.6875,-4048,2.4819129368,-2288,-1.4028203556,-15552,9.5352544451,-82,11.3414634146,-186,5,-1426,86.9512195122,-3,0.0130434783,-26,-0.1130434783,141,-0.687804878
15040670,18574.21875,-4560,2.7958307787,-2304,-1.4126302882,-15584,9.5548743102,-8,12.1951219512,-200,0.487804878,-1385,84.4512195122,-3,0.0130434783,-24,-0.1043478261,140,-0.6829268293
15041310,18593.75,-4416,2.7075413857,-2368,-1.4518700184,-15456,9.4763948498,-248,16.4634146341,-270,15.1219512195,-1444,88.0487804878,-4,0.0173913043,-18,-0.0782608696,139,-0.6780487805
15041950,18613.28125,-3696,2.2660944206,-2400,-1.4714898835,-15584,9.5548743102,-248,16.4634146341,-270,15.1219512195,-1444,88.0487804878,-6,0.0260869565,-14,-0.0608695652,139,-0.6780487805
15042590,18632.8125,-3152,1.9325567137,-2208,-1.3537706928,-15712,9.6333537707,-2,20.3658536585,-334,0.1219512195,-1449,88.3536585366,-7,0.0304347826,-13,-0.0565217391,140,-0.6829268293
15043230,18652.34375,-3536,2.167995095,-2256,-1.3832004905,-15472,9.4862047823,-2,20.3658536585,-334,0.1219512195,-1449,88.3536585366,-7,0.0304347826,-12,-0.052173913,139,-0.6780487805
15043870,18671.875,-3872,2.3740036787,-2208,-1.3537706928,-15648,9.5941140405,218,21.0365853659,-345,-13.2926829268,-1450,88.4146341463,-9,0.0391304348,-10,-0.0434782609,140,-0.6829268293
15044510,18691.40625,-3712,2.2759043532,-2016,-1.2360515021,-16032,9.8295524218,242,19.2682926829,-316,-14.756097561,-1362,83.0487804878,-6,0.0260869565,-10,-0.0434782609,138,-0.6731707317
15045150,18710.9375,-3568,2.1876149601,-2064,-1.2654812998,-15920,9.7608828939,242,19.2682926829,-316,-14.756097561,-1362,83.0487804878,-11,0.047826087,-9,-0.0391304348,139,-0.6780487805
15045790,18730.46875,-3968,2.4328632741,-1648,-1.0104230533,-16128,9.8884120172,245,17.6219512195,-289,-14.9390243902,-1249,76.1585365854,-10,0.0434782609,-5,-0.0217391304,137,-0.6682926829
15046430,18750,-3664,2.2464745555,-1568,-0.9613733906,-16000,9.8099325567,245,17.6219512195,-289,-14.9390243902,-1249,76.1585365854,-9,0.0391304348,-6,-0.0260869565,138,-0.6731707317
15047070,18769.53125,-3440,2.1091354997,-1616,-0.9908031882,-15920,9.7608828939,205,14.8780487805,-244,-12.5,-1160,70.7317073171,-8,0.0347826087,-1,-0.0043478261,135,-0.6585365854
15047710,18789.0625,-3904,2.3936235438,-1520,-0.9319435929,-15952,9.780502759,335,13.6585365854,-224,-20.4268292683,-1091,66.5243902439,-10,0.0434782609,-1,-0.0043478261,135,-0.6585365854
15048350,18808.59375,-4592,2.8154506438,-1456,-0.8927038627,-15840,9.7118332311,335,13.6585365854,-224,-20.4268292683,-1091,66.5243902439,-10,0.0434782609,1,0.0043478261,136,-0.6634146341
15048990,18828.125,-4896,3.0018393624,-1440,-0.8828939301,-15792,9.6824034335,248,16.2804878049,-267,-15.1219512195,-1078,65.7317073171,-11,0.047826087,-3,-0.0130434783,138,-0.6731707317
15049630,18847.65625,-5408,3.3157572042,-1504,-0.9221336603,-15504,9.5058246475,111,21.6463414634,-355,-6.7682926829,-1109,67.6219512195,-11,0.047826087,-2,-0.0086956522,137,-0.6682926829
15050270,18867.1875,-6144,3.7670141018,-1504,-0.9221336603,-15328,9.3979153893,111,21.6463414634,-355,-6.7682926829,-1109,67.6219512195,-10,0.0434782609,0,0,135,-0.6585365854
15050910,18886.71875,-6448,3.9534028204,-1536,-0.9417535254,-15584,9.5548743102,34,25.7317073171,-422,-2.0731707317,-1112,67.8048780488,-15,0.0652173913,7,0.0304347826,135,-0.6585365854
15051550,18906.25,-6768,4.1496014715,-1232,-0.7553648069,-15376,9.427345187,34,25.7317073171,-422,-2.0731707317,-1112,67.8048780488,-12,0.052173913,4,0.0173913043,136,-0.6634146341
15052190,18925.78125,-7424,4.5518087063,-864,-0.5297363581,-15376,9.427345187,126,27.3780487805,-449,-7.6829268293,-1069,65.1829268293,-14,0.0608695652,8,0.0347826087,135,-0.6585365854
15052830,18945.3125,-7536,4.6204782342,-800,-0.4904966278,-15472,9.4862047823,199,24.0243902439,-394,-12.1341463415,-876,53.4146341463,-12,0.052173913,3,0.0130434783,137,-0.6682926829
15053470,18964.84375,-7888,4.8362967505,-544,-0.3335377069,-15328,9.3979153893,199,24.0243902439,-394,-12.1341463415,-876,53.4146341463,-15,0.0652173913,12,0.052173913,134,-0.6536585366
15054110,18984.375,-8288,5.0815450644,-160,-0.0980993256,-15264,9.3586756591,190,18.1097560976,-297,-11.5853658537,-579,35.3048780488,-15,0.0652173913,8,0.0347826087,136,-0.6634146341
15054750,19003.90625,-8048,4.934396076,48,0.0294297977,-15360,9.4175352544,190,18.1097560976,-297,-11.5853658537,-579,35.3048780488,-15,0.0652173913,6,0.0260869565,135,-0.6585365854
15055390,19023.4375,-7904,4.846106683,336,0.2060085837,-15344,9.4077253219,132,9.6951219512,-159,-8.0487804878,-280,17.0731707317,-13,0.0565217391,4,0.0173913043,137,-0.6682926829
15056030,19042.96875,-7872,4.8264868179,208,0.1275291232,-15248,9.3488657265,156,2.5609756098,-42,-9.512195122,-9,0.5487804878,-15,0.0652173913,10,0.0434782609,137,-0.6682926829
15056670,19062.5,-7728,4.7381974249,16,0.0098099326,-14912,9.1428571429,156,2.5609756098,-42,-9.512195122,-9,0.5487804878,-14,0.0608695652,8,0.0347826087,135,-0.6585365854
15057310,19082.03125,-7520,4.6106683017,-160,-0.0980993256,-14656,8.9858982219,108,-2.1341463415,35,-6.5853658537,194,-11.8292682927,-14,0.0608695652,7,0.0304347826,134,-0.6536585366
15057950,19101.5625,-7232,4.4340895156,-320,-0.1961986511,-14752,9.0447578173,108,-2.1341463415,35,-6.5853658537,194,-11.8292682927,-14,0.0608695652,7,0.0304347826,135,-0.6585365854
15058590,19121.09375,-7072,4.3359901901,-464,-0.2844880441,-14528,8.9074187615,129,-5.3658536585,88,-7.8658536585,338,-20.6097560976,-14,0.0608695652,5,0.0217391304,136,-0.6634146341
15059230,19140.625,-7312,4.4831391784,-544,-0.3335377069,-14336,8.7896995708,154,-7.743902439,127,-9.3902439024,444,-27.0731707317,-11,0.047826087,5,0.0217391304,134,-0.6536585366
15059870,19160.15625,-7360,4.5125689761,-672,-0.4120171674,-14496,8.8877988964,154,-7.743902439,127,-9.3902439024,444,-27.0731707317,-11,0.047826087,3,0.0130434783,134,-0.6536585366
15060510,19179.6875,-7088,4.3458001226,-720,-0.4414469651,-14528,8.9074187615,106,-9.6951219512,159,-6.4634146341,554,-33.7804878049,-14,0.0608695652,8,0.0347826087,132,-0.643902439
15061150,19199.21875,-7264,4.4537093807,-704,-0.4316370325,-14608,8.9564684243,165,-13.2317073171,217,-10.0609756098,696,-42.4390243902,-12,0.052173913,6,0.0260869565,134,-0.6536585366
15061790,19218.75,-7616,4.669527897,-848,-0.5199264255,-14816,9.0839975475,165,-13.2317073171,217,-10.0609756098,696,-42.4390243902,-11,0.047826087,6,0.0260869565,132,-0.643902439
15062430,19238.28125,-7696,4.7185775598,-992,-0.6082158185,-15024,9.2115266708,81,-14.8170731707,243,-4.9390243902,815,-49.6951219512,-7,0.0304347826,0,0,133,-0.6487804878
15063070,19257.8125,-7568,4.6400980993,-1072,-0.6572654813,-15088,9.250766401,81,-14.8170731707,243,-4.9390243902,815,-49.6951219512,-9,0.0391304348,4,0.0173913043,131,-0.6390243902
15063710,19277.34375,-7760,4.75781729,-1232,-0.7553648069,-15152,9.2900061312,125,-15.6097560976,256,-7.6219512195,924,-56.3414634146,-6,0.0260869565,1,0.0043478261,132,-0.643902439
15064350,19296.875,-7984,4.8951563458,-1360,-0.8338442673,-15280,9.3684855917,171,-16.7682926829,275,-10.4268292683,1027,-62.6219512195,-7,0.0304347826,4,0.0173913043,129,-0.6292682927
15064990,19316.40625,-8000,4.9049662784,-1520,-0.9319435929,-15600,9.5646842428,171,-16.7682926829,275,-10.4268292683,1027,-62.6219512195,-4,0.0173913043,-3,-0.0130434783,133,-0.6487804878
15065630,19335.9375,-7872,4.8264868179,-1680,-1.0300429185,-15712,9.6333537707,141,-16.2195121951,266,-8.5975609756,1161,-70.7926829268,-4,0.0173913043,-1,-0.0043478261,130,-0.6341463415
15066270,19355.46875,-7776,4.7676272226,-1824,-1.1183323115,-15632,9.5843041079,141,-16.2195121951,266,-8.5975609756,1161,-70.7926829268,-1,0.0043478261,-4,-0.0173913043,131,-0.6390243902
15066910,19375,-7936,4.8657265481,-1920,-1.1771919068,-15472,9.4862047823,121,-16.5243902439,271,-7.3780487805,1287,-78.4756097561,-2,0.0086956522,-1,-0.0043478261,128,-0.6243902439
15067550,19394.53125,-7728,4.7381974249,-2064,-1.2654812998,-15376,9.427345187,23,-17.9268292683,294,-1.4024390244,1414,-86.2195121951,-1,0.0043478261,-9,-0.0391304348,132,-0.643902439
15068190,19414.0625,-7088,4.3458001226,-2128,-1.30472103,-15488,9.4960147149,23,-17.9268292683,294,-1.4024390244,1414,-86.2195121951,0,0,-4,-0.0173913043,131,-0.6390243902
15068830,19433.59375,-6784,4.159411404,-2288,-1.4028203556,-15344,9.4077253219,121,-19.2682926829,316,-7.3780487805,1525,-92.987804878,1,-0.0043478261,-12,-0.052173913,131,-0.6390243902
15069470,19453.125,-6992,4.2869405273,-2464,-1.5107296137,-15040,9.2213366033,134,-21.7682926829,357,-8.1707317073,1634,-99.6341463415,3,-0.0130434783,-15,-0.0652173913,131,-0.6390243902
15070110,19472.65625,-6928,4.2477007971,-2544,-1.5597792765,-14880,9.1232372777,134,-21.7682926829,357,-8.1707317073,1634,-99.6341463415,4,-0.0173913043,-16,-0.0695652174,130,-0.6341463415
15070750,19492.1875,-6464,3.9632127529,-2592,-1.5892090742,-14912,9.1428571429,38,-23.0487804878,378,-2.3170731707,1726,-105.243902439,3,-0.0130434783,-15,-0.0652173913,129,-0.6292682927
15071390,19511.71875,-6240,3.8258736971,-2784,-1.7069282649,-14704,9.0153280196,38,-23.0487804878,378,-2.3170731707,1726,-105.243902439,7,-0.0304347826,-24,-0.1043478261,131,-0.6390243902
15072030,19531.25,-6032,3.6983445739,-2896,-1.7755977928,-14560,8.9270386266,-3,-23.9024390244,392,0.1829268293,1781,-108.5975609756,6,-0.0260869565,-19,-0.0826086957,130,-0.6341463415
15072670,19550.78125,-5888,3.6100551809,-2800,-1.7167381974,-14960,9.1722869405,-28,-28.2926829268,464,1.7073170732,1869,-113.9634146341,7,-0.0304347826,-25,-0.1086956522,132,-0.643902439
15073310,19570.3125,-5568,3.4138565297,-2816,-1.72654813,-15072,9.2409564684,-28,-28.2926829268,464,1.7073170732,1869,-113.9634146341,5,-0.0217391304,-26,-0.1130434783,131,-0.6390243902
15073950,19589.84375,-5152,3.1587982833,-2944,-1.8050275904,-14912,9.1428571429,46,-29.0853658537,477,-2.8048780488,1932,-117.8048780488,8,-0.0347826087,-28,-0.1217391304,131,-0.6390243902
15074590,19609.375,-5360,3.2863274065,-3040,-1.8638871858,-14880,9.1232372777,46,-29.0853658537,477,-2.8048780488,1932,-117.8048780488,8,-0.0347826087,-34,-0.147826087,130,-0.6341463415
15075230,19628.90625,-5376,3.2961373391,-3264,-2.0012262416,-14912,9.1428571429,36,-33.2317073171,545,-2.1951219512,1991,-121.4024390244,10,-0.0434782609,-37,-0.1608695652,133,-0.6487804878
15075870,19648.4375,-4800,2.942979767,-3296,-2.0208461067,-15120,9.2703862661,24,-33.7195121951,553,-1.4634146341,2026,-123.5365853659,9,-0.0391304348,-40,-0.1739130435,131,-0.6390243902
15076510,19667.96875,-4400,2.6977314531,-3296,-2.0208461067,-15104,9.2605763335,24,-33.7195121951,553,-1.4634146341,2026,-123.5365853659,10,-0.0434782609,-41,-0.1782608696,133,-0.6487804878
15077150,19687.5,-4640,2.8448804414,-3440,-2.1091354997,-15328,9.3979153893,109,-34.9390243902,573,-6.6463414634,2030,-123.7804878049,11,-0.047826087,-44,-0.1913043478,133,-0.6487804878
15077790,19707.03125,-5024,3.0803188228,-3536,-2.167995095,-15280,9.3684855917,109,-34.9390243902,573,-6.6463414634,2030,-123.7804878049,9,-0.0391304348,-47,-0.2043478261,134,-0.6536585366
15078430,19726.5625,-4432,2.7173513182,-3456,-2.1189454323,-15136,9.2801961987,-44,-32.6829268293,536,2.6829268293,1995,-121.6463414634,8,-0.0347826087,-52,-0.2260869565,135,-0.6585365854
15079070,19746.09375,-3888,2.3838136113,-3712,-2.2759043532,-15440,9.4665849172,-27,-32.9268292683,540,1.6463414634,1974,-120.3658536585,6,-0.0260869565,-48,-0.2086956522,133,-0.6487804878
15079710,19765.625,-3952,2.4230533415,-3632,-2.2268546904,-15584,9.5548743102,-27,-32.9268292683,540,1.6463414634,1974,-120.3658536585,8,-0.0347826087,-51,-0.2217391304,134,-0.6536585366
15080350,19785.15625,-3904,2.3936235438,-3392,-2.079705702,-15376,9.427345187,-95,-31.3414634146,514,5.7926829268,1913,-116.6463414634,6,-0.0260869565,-57,-0.247826087,134,-0.6536585366
15080990,19804.6875,-3584,2.1974248927,-3520,-2.1581851625,-15536,9.5254445126,-177,-31.1585365854,511,10.7926829268,1889,-115.1829268293,6,-0.0260869565,-62,-0.2695652174,136,-0.6634146341
15081630,19824.21875,-3168,1.9423666462,-3472,-2.1287553648,-15808,9.692213366,-177,-31.1585365854,511,10.7926829268,1889,-115.1829268293,6,-0.0260869565,-59,-0.2565217391,136,-0.6634146341
15082270,19843.75,-2720,1.6676885346,-3392,-2.079705702,-15888,9.7412630288,-342,-28.5365853659,468,20.8536585366,1807,-110.1829268293,4,-0.0173913043,-63,-0.2739130435,136,-0.6634146341
15082910,19863.28125,-1968,1.2066217045,-3296,-2.0208461067,-16080,9.8589822195,-342,-28.5365853659,468,20.8536585366,1807,-110.1829268293,2,-0.0086956522,-62,-0.2695652174,138,-0.6731707317
15083550,19882.8125,-1728,1.0594727161,-2912,-1.7854077253,-16160,9.9080318823,-344,-25.7926829268,423,20.9756097561,1723,-105.0609756098,0,0,-67,-0.2913043478,142,-0.6926829268
15084190,19902.34375,-1360,0.8338442673,-2688,-1.6480686695,-16000,9.8099325567,-356,-20.8536585366,342,21.7073170732,1568,-95.6097560976,0,0,-74,-0.3217391304,143,-0.6975609756
15084830,19921.875,-112,0.0686695279,-2624,-1.6088289393,-16256,9.9668914776,-356,-20.8536585366,342,21.7073170732,1568,-95.6097560976,-2,0.0086956522,-75,-0.3260869565,144,-0.7024390244
15085470,19941.40625,96,-0.0588595953,-2464,-1.5107296137,-16304,9.9963212753,42,-17.6219512195,289,-2.5609756098,1460,-89.0243902439,-4,0.0173913043,-75,-0.3260869565,143,-0.6975609756
15086110,19960.9375,-1376,0.8436541999,-1984,-1.216431637,-16080,9.8589822195,42,-17.6219512195,289,-2.5609756098,1460,-89.0243902439,-4,0.0173913043,-76,-0.3304347826,144,-0.7024390244
15086750,19980.46875,-1728,1.0594727161,-1760,-1.0790925812,-16256,9.9668914776,61,-14.9390243902,245,-3.7195121951,1303,-79.4512195122,-4,0.0173913043,-80,-0.347826087,145,-0.7073170732
15087390,20000,-576,0.353157572,-1904,-1.1673819742,-16336,10.0159411404,-134,-11.0975609756,182,8.1707317073,1183,-72.1341463415,-8,0.0347826087,-81,-0.352173913,147,-0.7170731707
15088030,20019.53125,-480,0.2942979767,-1536,-0.9417535254,-16000,9.8099325567,-134,-11.0975609756,182,8.1707317073,1183,-72.1341463415,-7,0.0304347826,-79,-0.3434782609,144,-0.7024390244
15088670,20039.0625,-1712,1.0496627836,-1424,-0.8730839975,-15984,9.8001226242,134,-11.4024390244,187,-8.1707317073,1123,-68.4756097561,-10,0.0434782609,-78,-0.3391304348,145,-0.7073170732
15089310,20058.59375,-2192,1.3439607603,-1248,-0.7651747394,-15888,9.7412630288,134,-11.4024390244,187,-8.1707317073,1123,-68.4756097561,-10,0.0434782609,-84,-0.3652173913,146,-0.712195122
15089950,20078.125,-1088,0.6670754139,-976,-0.598405886,-15872,9.7314530963,-263,-10.6707317073,175,16.0365853659,993,-60.5487804878,-12,0.052173913,-85,-0.3695652174,149,-0.7268292683
15090590,20097.65625,-336,0.2060085837,-944,-0.5787860208,-15792,9.6824034335,-77,-9.3902439024,154,4.6951219512,970,-59.1463414634,-12,0.052173913,-88,-0.3826086957,148,-0.7219512195
15091230,20117.1875,-992,0.6082158185,-736,-0.4512568976,-15584,9.5548743102,-77,-9.3902439024,154,4.6951219512,970,-59.1463414634,-14,0.0608695652,-90,-0.3913043478,148,-0.7219512195
15091870,20136.71875,-1440,0.8828939301,-592,-0.3629675046,-15440,9.4665849172,-11,-12.9268292683,212,0.6707317073,880,-53.6585365854,-15,0.0652173913,-84,-0.3652173913,149,-0.7268292683
15092510,20156.25,-928,0.5689760883,-688,-0.4218270999,-15440,9.4665849172,-114,-14.6341463415,240,6.9512195122,824,-50.243902439,-16,0.0695652174,-85,-0.3695652174,150,-0.7317073171
15093150,20175.78125,-240,0.1471489884,-624,-0.3825873697,-15696,9.6235438381,-114,-14.6341463415,240,6.9512195122,824,-50.243902439,-16,0.0695652174,-90,-0.3913043478,149,-0.7268292683
15093790,20195.3125,48,-0.0294297977,-384,-0.2354383814,-15872,9.7314530963,33,-17.1341463415,281,-2.012195122,785,-47.8658536585,-18,0.0782608696,-90,-0.3913043478,150,-0.7317073171
15094430,20214.84375,48,-0.0294297977,-320,-0.1961986511,-16352,10.025751073,33,-17.1341463415,281,-2.012195122,785,-47.8658536585,-19,0.0826086957,-90,-0.3913043478,150,-0.7317073171
15095070,20234.375,672,-0.4120171674,-432,-0.264868179,-16896,10.3592887799,-11,-15.9756097561,262,0.6707317073,640,-39.0243902439,-20,0.0869565217,-89,-0.3869565217,150,-0.7317073171
15095710,20253.90625,928,-0.5689760883,-400,-0.2452483139,-17104,10.4868179031,132,-10,164,-8.0487804878,463,-28.2317073171,-21,0.0913043478,-88,-0.3826086957,151,-0.7365853659
15096350,20273.4375,592,-0.3629675046,-176,-0.1079092581,-17184,10.5358675659,132,-10,164,-8.0487804878,463,-28.2317073171,-21,0.0913043478,-89,-0.3869565217,152,-0.7414634146
15096990,20292.96875,288,-0.176578786,-256,-0.1569589209,-17264,10.5849172287,-3,-4.6951219512,77,0.1829268293,233,-14.2073170732,-20,0.0869565217,-89,-0.3869565217,150,-0.7317073171
15097630,20312.5,272,-0.1667688535,-288,-0.176578786,-17296,10.6045370938,-3,-4.6951219512,77,0.1829268293,233,-14.2073170732,-19,0.0826086957,-91,-0.3956521739,151,-0.7365853659
15098270,20332.03125,320,-0.1961986511,-304,-0.1863887186,-17216,10.555487431,-60,0.487804878,-8,3.6585365854,90,-5.487804878,-23,0.1,-93,-0.4043478261,152,-0.7414634146
15098910,20351.5625,128,-0.0784794605,-144,-0.088289393,-17056,10.4573881055,-43,2.8048780488,-46,2.6219512195,-18,1.0975609756,-21,0.0913043478,-92,-0.4,153,-0.7463414634
15099550,20371.09375,16,-0.0098099326,-48,-0.0294297977,-16864,10.3396689148,-43,2.8048780488,-46,2.6219512195,-18,1.0975609756,-22,0.0956521739,-92,-0.4,151,-0.7365853659
15100190,20390.625,-48,0.0294297977,-48,-0.0294297977,-16752,10.2709993869,-34,4.3292682927,-71,2.0731707317,-127,7.743902439,-20,0.0869565217,-94,-0.4086956522,151,-0.7365853659
15100830,20410.15625,-432,0.264868179,-80,-0.0490496628,-16736,10.2611894543,-34,4.3292682927,-71,2.0731707317,-127,7.743902439,-20,0.0869565217,-88,-0.3826086957,152,-0.7414634146
15101470,20429.6875,-912,0.5591661557,-32,-0.0196198651,-16640,10.202329859,-24,5.9756097561,-98,1.4634146341,-213,12.987804878,-22,0.0956521739,-89,-0.3869565217,151,-0.7365853659
15102110,20449.21875,-784,0.4806866953,-32,-0.0196198651,-16528,10.1336603311,-115,7.6829268293,-126,7.012195122,-297,18.1097560976,-20,0.0869565217,-88,-0.3826086957,150,-0.7317073171
15102750,20468.75,-208,0.1275291232,-320,-0.1961986511,-16624,10.1925199264,-115,7.6829268293,-126,7.012195122,-297,18.1097560976,-20,0.0869565217,-92,-0.4,152,-0.7414634146
15103390,20488.28125,-352,0.2158185162,-336,-0.2060085837,-16464,10.0944206009,72,7.3780487805,-121,-4.3902439024,-348,21.2195121951,-21,0.0913043478,-88,-0.3826086957,151,-0.7365853659
15104030,20507.8125,-848,0.5199264255,-320,-0.1961986511,-16752,10.2709993869,-34,8.8414634146,-145,2.0731707317,-451,27.5,-20,0.0869565217,-88,-0.3826086957,151,-0.7365853659
15104670,20527.34375,-432,0.264868179,-528,-0.3237277744,-16992,10.4181483752,-34,8.8414634146,-145,2.0731707317,-451,27.5,-19,0.0826086957,-86,-0.3739130435,152,-0.7414634146
15105310,20546.875,304,-0.1863887186,-784,-0.4806866953,-16848,10.3298589822,-53,11.4024390244,-187,3.2317073171,-556,33.9024390244,-18,0.0782608696,-90,-0.3913043478,152,-0.7414634146
15105950,20566.40625,528,-0.3237277744,-800,-0.4904966278,-16768,10.2808093194,-53,11.4024390244,-187,3.2317073171,-556,33.9024390244,-16,0.0695652174,-86,-0.3739130435,151,-0.7365853659
15106590,20585.9375,256,-0.1569589209,-752,-0.4610668302,-16944,10.3887185776,-5,13.2317073171,-217,0.3048780488,-693,42.256097561,-17,0.0739130435,-86,-0.3739130435,150,-0.7317073171
15107230,20605.46875,672,-0.4120171674,-1072,-0.6572654813,-16896,10.3592887799,-103,17.1951219512,-282,6.2804878049,-858,52.3170731707,-18,0.0782608696,-87,-0.3782608696,150,-0.7317073171
15107870,20625,1424,-0.8730839975,-1472,-0.9025137952,-16816,10.3102391171,-103,17.1951219512,-282,6.2804878049,-858,52.3170731707,-17,0.0739130435,-83,-0.3608695652,151,-0.7365853659
15108510,20644.53125,1152,-0.7063151441,-1456,-0.8927038627,-16880,10.3494788473,16,19.0853658537,-313,-0.9756097561,-1009,61.5243902439,-14,0.0608695652,-86,-0.3739130435,150,-0.7317073171
15109150,20664.0625,288,-0.176578786,-1248,-0.7651747394,-16864,10.3396689148,16,19.0853658537,-313,-0.9756097561,-1009,61.5243902439,-16,0.0695652174,-79,-0.3434782609,148,-0.7219512195
15109790,20683.59375,352,-0.2158185162,-1568,-0.9613733906,-16768,10.2808093194,-174,22.8048780488,-374,10.6097560976,-1189,72.5,-14,0.0608695652,-82,-0.3565217391,149,-0.7268292683
15110430,20703.125,1072,-0.6572654813,-2016,-1.2360515021,-16336,10.0159411404,-33,24.9390243902,-409,2.012195122,-1315,80.1829268293,-13,0.0565217391,-82,-0.3565217391,148,-0.7219512195
15111070,20722.65625,352,-0.2158185162,-2000,-1.2262415696,-16048,9.8393623544,-33,24.9390243902,-409,2.012195122,-1315,80.1829268293,-9,0.0391304348,-82,-0.3565217391,148,-0.7219512195
15111710,20742.1875,-944,0.5787860208,-1824,-1.1183323115,-16112,9.8786020846,-45,24.512195122,-402,2.743902439,-1443,87.987804878,-11,0.047826087,-76,-0.3304347826,149,-0.7268292683
15112350,20761.71875,-864,0.5297363581,-1952,-1.1968117719,-16032,9.8295524218,-187,26.4634146341,-434,11.4024390244,-1549,94.4512195122,-8,0.0347826087,-77,-0.3347826087,148,-0.7219512195
15112990,20781.25,-256,0.1569589209,-2336,-1.4322501533,-15728,9.6431637032,-187,26.4634146341,-434,11.4024390244,-1549,94.4512195122,-7,0.0304347826,-77,-0.3347826087,147,-0.7170731707
15113630,20800.78125,-976,0.598405886,-2336,-1.4322501533,-15648,9.5941140405,39,24.2073170732,-397,-2.3780487805,-1590,96.9512195122,-5,0.0217391304,-75,-0.3260869565,148,-0.7219512195
15114270,20820.3125,-2096,1.2851011649,-2176,-1.3341508277,-15648,9.5941140405,39,24.2073170732,-397,-2.3780487805,-1590,96.9512195122,-6,0.0260869565,-73,-0.3173913043,145,-0.7073170732
15114910,20839.84375,-2144,1.3145309626,-2448,-1.5009196812,-15328,9.3979153893,-147,24.2073170732,-397,8.9634146341,-1668,101.7073170732,-6,0.0260869565,-67,-0.2913043478,145,-0.7073170732
15115550,20859.375,-2016,1.2360515021,-2576,-1.5793991416,-15280,9.3684855917,-136,22.0731707317,-362,8.2926829268,-1707,104.0853658537,-3,0.0130434783,-72,-0.3130434783,145,-0.7073170732
15116190,20878.90625,-2256,1.3832004905,-2480,-1.5205395463,-15568,9.5450643777,-136,22.0731707317,-362,8.2926829268,-1707,104.0853658537,-2,0.0086956522,-66,-0.2869565217,145,-0.7073170732
15116830,20898.4375,-2592,1.5892090742,-2432,-1.4911097486,-15632,9.5843041079,-119,20.1219512195,-330,7.256097561,-1699,103.5975609756,-1,0.0043478261,-63,-0.2739130435,144,-0.7024390244
15117470,20917.96875,-2816,1.72654813,-2752,-1.6873083998,-15552,9.5352544451,-119,20.1219512195,-330,7.256097561,-1699,103.5975609756,-1,0.0043478261,-60,-0.2608695652,144,-0.7024390244
15118110,20937.5,-2320,1.4224402207,-2656,-1.6284488044,-15664,9.603923973,-210,19.2682926829,-316,12.8048780488,-1703,103.8414634146,-2,0.0086956522,-60,-0.2608695652,144,-0.7024390244
15118750,20957.03125,-2288,1.4028203556,-2608,-1.5990190067,-15776,9.6725935009,28,18.2317073171,-299,-1.7073170732,-1684,102.6829268293,-1,0.0043478261,-59,-0.2565217391,145,-0.7073170732
15119390,20976.5625,-3024,1.8540772532,-2688,-1.6480686695,-15728,9.6431637032,28,18.2317073171,-299,-1.7073170732,-1684,102.6829268293,0,0,-56,-0.2434782609,144,-0.7024390244
15120030,20996.09375,-3360,2.0600858369,-2752,-1.6873083998,-15664,9.603923973,-60,18.4756097561,-303,3.6585365854,-1729,105.4268292683,0,0,-50,-0.2173913043,142,-0.6926829268
15120670,21015.625,-2640,1.6186388719,-2912,-1.7854077253,-15648,9.5941140405,-60,18.4756097561,-303,3.6585365854,-1729,105.4268292683,1,-0.0043478261,-48,-0.2086956522,143,-0.6975609756
15121310,21035.15625,-2656,1.6284488044,-2864,-1.7559779277,-15760,9.6627835684,53,18.8414634146,-309,-3.2317073171,-1703,103.8414634146,0,0,-44,-0.1913043478,142,-0.6926829268
15121950,21054.6875,-4032,2.4721030043,-2656,-1.6284488044,-15840,9.7118332311,113,17.9268292683,-294,-6.8902439024,-1698,103.5365853659,-1,0.0043478261,-48,-0.2086956522,141,-0.687804878
15122590,21074.21875,-4208,2.5800122624,-2736,-1.6774984672,-15808,9.692213366,113,17.9268292683,-294,-6.8902439024,-1698,103.5365853659,1,-0.0043478261,-45,-0.1956521739,142,-0.6926829268
15123230,21093.75,-3216,1.9717964439,-2832,-1.7363580625,-15424,9.4567749847,-95,19.512195122,-320,5.7926829268,-1691,103.1097560976,2,-0.0086956522,-37,-0.1608695652,140,-0.6829268293
15123870,21113.28125,-3376,2.0698957695,-2752,-1.6873083998,-15504,9.5058246475,216,18.5975609756,-305,-13.1707317073,-1631,99.4512195122,2,-0.0086956522,-37,-0.1608695652,140,-0.6829268293
15124510,21132.8125,-4832,2.9625996321,-2688,-1.6480686695,-15680,9.6137339056,216,18.5975609756,-305,-13.1707317073,-1631,99.4512195122,3,-0.0130434783,-37,-0.1608695652,139,-0.6780487805
15125150,21152.34375,-5280,3.2372777437,-2736,-1.6774984672,-15552,9.5352544451,-178,20,-328,10.8536585366,-1639,99.9390243902,3,-0.0130434783,-35,-0.152173913,140,-0.6829268293
15125790,21171.875,-4336,2.6584917229,-2736,-1.6774984672,-15360,9.4175352544,-178,20,-328,10.8536585366,-1639,99.9390243902,2,-0.0086956522,-31,-0.1347826087,140,-0.6829268293
15126430,21191.40625,-3520,2.1581851625,-2560,-1.5695892091,-15408,9.4469650521,-151,18.0487804878,-296,9.2073170732,-1523,92.8658536585,1,-0.0043478261,-28,-0.1217391304,140,-0.6829268293
15127070,21210.9375,-3888,2.3838136113,-2192,-1.3439607603,-15648,9.5941140405,110,15.4268292683,-253,-6.7073170732,-1465,89.3292682927,-1,0.0043478261,-29,-0.1260869565,141,-0.687804878
15127710,21230.46875,-4176,2.5603923973,-2288,-1.4028203556,-15264,9.3586756591,110,15.4268292683,-253,-6.7073170732,-1465,89.3292682927,-1,0.0043478261,-27,-0.1173913043,140,-0.6829268293
15128350,21250,-4032,2.4721030043,-2448,-1.5009196812,-15376,9.427345187,135,15.487804878,-254,-8.2317073171,-1458,88.9024390244,1,-0.0043478261,-25,-0.1086956522,138,-0.6731707317
15128990,21269.53125,-3344,2.0502759044,-2544,-1.5597792765,-15440,9.4665849172,135,15.487804878,-254,-8.2317073171,-1458,88.9024390244,1,-0.0043478261,-23,-0.1,137,-0.6682926829
15129630,21289.0625,-3632,2.2268546904,-2320,-1.4224402207,-15712,9.6333537707,391,14.0853658537,-231,-23.8414634146,-1361,82.987804878,-1,0.0043478261,-22,-0.0956521739,138,-0.6731707317
15130270,21308.59375,-4464,2.7369711833,-2512,-1.5401594114,-15456,9.4763948498,328,14.9390243902,-245,-20,-1339,81.6463414634,-1,0.0043478261,-14,-0.0608695652,136,-0.6634146341
15130910,21328.125,-4240,2.5996321275,-2592,-1.5892090742,-15008,9.2017167382,328,14.9390243902,-245,-20,-1339,81.6463414634,-2,0.0086956522,-14,-0.0608695652,135,-0.6585365854
15131550,21347.65625,-3808,2.3347639485,-2624,-1.6088289393,-15040,9.2213366033,154,15.5487804878,-255,-9.3902439024,-1360,82.9268292683,-1,0.0043478261,-16,-0.0695652174,134,-0.6536585366
15132190,21367.1875,-4016,2.4622930717,-2496,-1.5303494788,-14656,8.9858982219,154,15.5487804878,-255,-9.3902439024,-1360,82.9268292683,-3,0.0130434783,-12,-0.052173913,136,-0.6634146341
15132830,21386.71875,-4496,2.7565910484,-2448,-1.5009196812,-13936,8.5444512569,20,16.5853658537,-272,-1.2195121951,-1376,83.9024390244,-4,0.0173913043,-9,-0.0391304348,135,-0.6585365854
15133470,21406.25,-3936,2.413243409,-2160,-1.3243408952,-14112,8.652360515,-270,14.3902439024,-236,16.4634146341,-1444,88.0487804878,-3,0.0130434783,-9,-0.0391304348,136,-0.6634146341
15134110,21425.78125,-3360,2.0600858369,-2352,-1.4420600858,-13984,8.5738810546,-270,14.3902439024,-236,16.4634146341,-1444,88.0487804878,-5,0.0217391304,-8,-0.0347826087,136,-0.6634146341
15134750,21445.3125,-4064,2.4917228694,-2016,-1.2360515021,-13792,8.4561618639,-123,12.9268292683,-212,7.5,-1404,85.6097560976,-9,0.0391304348,-2,-0.0086956522,134,-0.6536585366
15135390,21464.84375,-4400,2.6977314531,-1504,-0.9221336603,-14288,8.7602697731,-98,10.1219512195,-166,5.9756097561,-1411,86.0365853659,-8,0.0347826087,0,0,135,-0.6585365854
15136030,21484.375,-4688,2.8743102391,-1696,-1.039852851,-14896,9.1330472103,-98,10.1219512195,-166,5.9756097561,-1411,86.0365853659,-7,0.0304347826,-3,-0.0130434783,137,-0.6682926829
15136670,21503.90625,-5440,3.3353770693,-1888,-1.1575720417,-15248,9.3488657265,140,9.8170731707,-161,-8.5365853659,-1390,84.756097561,-9,0.0391304348,0,0,136,-0.6634146341
15137310,21523.4375,-6624,4.0613120785,-2048,-1.2556713673,-15728,9.6431637032,140,9.8170731707,-161,-8.5365853659,-1390,84.756097561,-11,0.047826087,4,0.0173913043,135,-0.6585365854
15137950,21542.96875,-7424,4.5518087063,-2096,-1.2851011649,-16240,9.9570815451,319,12.256097561,-201,-19.4512195122,-1319,80.4268292683,-11,0.047826087,5,0.0217391304,135,-0.6585365854
15138590,21562.5,-7760,4.75781729,-2288,-1.4028203556,-16352,10.025751073,405,15,-246,-24.6951219512,-1160,70.7317073171,-13,0.0565217391,3,0.0130434783,135,-0.6585365854
15139230,21582.03125,-8464,5.1894543225,-2304,-1.4126302882,-16480,10.1042305334,405,15,-246,-24.6951219512,-1160,70.7317073171,-14,0.0608695652,11,0.047826087,132,-0.643902439
15139870,21601.5625,-9168,5.621091355,-2144,-1.3145309626,-16496,10.114040466,366,16.0975609756,-264,-22.3170731707,-956,58.2926829268,-16,0.0695652174,12,0.052173913,132,-0.643902439
15140510,21621.09375,-9056,5.5524218271,-1984,-1.216431637,-16096,9.8687921521,366,16.0975609756,-264,-22.3170731707,-956,58.2926829268,-14,0.0608695652,8,0.0347826087,133,-0.6487804878
15141150,21640.625,-8784,5.3856529736,-1584,-0.9711833231,-15840,9.7118332311,252,14.4512195122,-237,-15.3658536585,-718,43.7804878049,-14,0.0608695652,10,0.0434782609,132,-0.643902439
15141790,21660.15625,-8912,5.4641324341,-1296,-0.7946045371,-15888,9.7412630288,367,9.2682926829,-152,-22.3780487805,-452,27.5609756098,-16,0.0695652174,13,0.0565217391,131,-0.6390243902
15142430,21679.6875,-9200,5.6407112201,-1168,-0.7161250766,-15728,9.6431637032,367,9.2682926829,-152,-22.3780487805,-452,27.5609756098,-16,0.0695652174,14,0.0608695652,130,-0.6341463415
15143070,21699.21875,-9424,5.7780502759,-1056,-0.6474555487,-15440,9.4665849172,309,4.5731707317,-75,-18.8414634146,-163,9.9390243902,-13,0.0565217391,9,0.0391304348,131,-0.6390243902
15143710,21718.75,-9328,5.7191906806,-1184,-0.7259350092,-15312,9.3881054568,309,4.5731707317,-75,-18.8414634146,-163,9.9390243902,-15,0.0652173913,14,0.0608695652,131,-0.6390243902
15144350,21738.28125,-8880,5.444512569,-1248,-0.7651747394,-15200,9.3194359289,97,1.0975609756,-18,-5.9146341463,108,-6.5853658537,-13,0.0565217391,12,0.052173913,131,-0.6390243902
15144990,21757.8125,-8304,5.0913549969,-1312,-0.8044144697,-15216,9.3292458614,100,-4.0243902439,66,-6.0975609756,324,-19.756097561,-11,0.047826087,8,0.0347826087,131,-0.6390243902
15145630,21777.34375,-8112,4.9736358063,-1360,-0.8338442673,-15104,9.2605763335,100,-4.0243902439,66,-6.0975609756,324,-19.756097561,-16,0.0695652174,7,0.0304347826,129,-0.6292682927
15146270,21796.875,-8224,5.0423053342,-1584,-0.9711833231,-15008,9.2017167382,146,-7.4390243902,122,-8.9024390244,519,-31.6463414634,-14,0.0608695652,12,0.052173913,129,-0.6292682927
15146910,21816.40625,-8112,4.9736358063,-1728,-1.0594727161,-14896,9.1330472103,99,-10.1829268293,167,-6.0365853659,689,-42.012195122,-11,0.047826087,14,0.0608695652,129,-0.6292682927
15147550,21835.9375,-7872,4.8264868179,-1744,-1.0692826487,-14928,9.1526670754,99,-10.1829268293,167,-6.0365853659,689,-42.012195122,-9,0.0391304348,8,0.0347826087,130,-0.6341463415
15148190,21855.46875,-7776,4.7676272226,-1888,-1.1575720417,-14800,9.074187615,71,-12.6219512195,207,-4.3292682927,826,-50.3658536585,-9,0.0391304348,8,0.0347826087,129,-0.6292682927
15148830,21875,-7712,4.7283874923,-2144,-1.3145309626,-14784,9.0643776824,71,-12.6219512195,207,-4.3292682927,826,-50.3658536585,-8,0.0347826087,7,0.0304347826,129,-0.6292682927
15149470,21894.53125,-7744,4.7480073574,-2240,-1.3733905579,-14816,9.0839975475,58,-13.7804878049,226,-3.5365853659,941,-57.3780487805,-9,0.0391304348,3,0.0130434783,130,-0.6341463415
15150110,21914.0625,-7680,4.7087676272,-2176,-1.3341508277,-15008,9.2017167382,-20,-13.4756097561,221,1.2195121951,1022,-62.3170731707,-8,0.0347826087,4,0.0173913043,127,-0.6195121951
15150750,21933.59375,-7232,4.4340895156,-2288,-1.4028203556,-14816,9.0839975475,-20,-13.4756097561,221,1.2195121951,1022,-62.3170731707,-5,0.0217391304,2,0.0086956522,129,-0.6292682927
15151390,21953.125,-7008,4.2967504598,-2432,-1.4911097486,-14880,9.1232372777,-76,-15.3658536585,252,4.6341463415,1153,-70.3048780488,-3,0.0130434783,-1,-0.0043478261,129,-0.6292682927
15152030,21972.65625,-6736,4.1299816064,-2464,-1.5107296137,-15104,9.2605763335,-76,-15.3658536585,252,4.6341463415,1153,-70.3048780488,-4,0.0173913043,3,0.0130434783,127,-0.6195121951
15152670,21992.1875,-6560,4.0220723483,-2352,-1.4420600858,-15040,9.2213366033,-216,-14.6951219512,241,13.1707317073,1233,-75.1829268293,-5,0.0217391304,-1,-0.0043478261,129,-0.6292682927
15153310,22011.71875,-6416,3.9337829552,-2272,-1.3930104231,-15056,9.2311465359,-401,-12.3170731707,202,24.4512195122,1208,-73.6585365854,-1,0.0043478261,-5,-0.0217391304,129,-0.6292682927
15153950,22031.25,-5968,3.6591048437,-2320,-1.4224402207,-15280,9.3684855917,-401,-12.3170731707,202,24.4512195122,1208,-73.6585365854,-3,0.0130434783,-2,-0.0086956522,130,-0.6341463415
15154590,22050.78125,-5680,3.4825260576,-2320,-1.4224402207,-15456,9.4763948498,-287,-10.6097560976,174,17.5,1201,-73.2317073171,-2,0.0086956522,-4,-0.0173913043,132,-0.643902439
15155230,22070.3125,-5968,3.6591048437,-2480,-1.5205395463,-15664,9.603923973,-26,-9.2073170732,151,1.5853658537,1293,-78.8414634146,-3,0.0130434783,-8,-0.0347826087,131,-0.6390243902
15155870,22089.84375,-6688,4.1005518087,-2400,-1.4714898835,-15664,9.603923973,-26,-9.2073170732,151,1.5853658537,1293,-78.8414634146,1,-0.0043478261,-11,-0.047826087,132,-0.643902439
15156510,22109.375,-6896,4.2280809319,-2464,-1.5107296137,-15344,9.4077253219,-128,-8.0487804878,132,7.8048780488,1392,-84.8780487805,2,-0.0086956522,-14,-0.0608695652,133,-0.6487804878
15157150,22128.90625,-6480,3.9730226855,-2496,-1.5303494788,-15232,9.339055794,-128,-8.0487804878,132,7.8048780488,1392,-84.8780487805,3,-0.0130434783,-13,-0.0565217391,132,-0.643902439
15157790,22148.4375,-5968,3.6591048437,-2576,-1.5793991416,-15280,9.3684855917,-199,-9.1463414634,150,12.1341463415,1466,-89.3902439024,3,-0.0130434783,-15,-0.0652173913,132,-0.643902439
15158430,22167.96875,-5728,3.5119558553,-2624,-1.6088289393,-15056,9.2311465359,-52,-12.5,205,3.1707317073,1578,-96.2195121951,2,-0.0086956522,-18,-0.0782608696,134,-0.6536585366
15159070,22187.5,-5904,3.6198651134,-2832,-1.7363580625,-14784,9.0643776824,-52,-12.5,205,3.1707317073,1578,-96.2195121951,3,-0.0130434783,-18,-0.0782608696,132,-0.643902439
15159710,22207.03125,-5904,3.6198651134,-2784,-1.7069282649,-14864,9.1134273452,-147,-14.9390243902,245,8.9634146341,1664,-101.4634146341,3,-0.0130434783,-18,-0.0782608696,132,-0.643902439
15160350,22226.5625,-5504,3.3746167995,-2800,-1.7167381974,-14864,9.1134273452,-147,-14.9390243902,245,8.9634146341,1664,-101.4634146341,3,-0.0130434783,-26,-0.1130434783,134,-0.6536585366
15160990,22246.09375,-4752,2.9135499693,-2784,-1.7069282649,-14720,9.0251379522,-236,-18.1707317073,298,14.3902439024,1773,-108.1097560976,4,-0.0173913043,-28,-0.1217391304,133,-0.6487804878
15161630,22265.625,-4368,2.678111588,-2896,-1.7755977928,-14960,9.1722869405,-114,-22.1951219512,364,6.9512195122,1856,-113.1707317073,5,-0.0217391304,-27,-0.1173913043,136,-0.6634146341
15162270,22285.15625,-4064,2.4917228694,-2912,-1.7854077253,-15120,9.2703862661,-114,-22.1951219512,364,6.9512195122,1856,-113.1707317073,6,-0.0260869565,-35,-0.152173913,135,-0.6585365854
15162910,22304.6875,-4080,2.501532802,-2912,-1.7854077253,-15088,9.250766401,38,-25.3658536585,416,-2.3170731707,1922,-117.1951219512,6,-0.0260869565,-39,-0.1695652174,137,-0.6682926829
15163550,22324.21875,-4064,2.4917228694,-2944,-1.8050275904,-14992,9.1919068056,38,-25.3658536585,416,-2.3170731707,1922,-117.1951219512,5,-0.0217391304,-36,-0.1565217391,136,-0.6634146341
15164190,22343.75,-3472,2.1287553648,-3104,-1.903126916,-14848,9.1036174126,4,-24.3902439024,400,-0.243902439,1918,-116.9512195122,6,-0.0260869565,-39,-0.1695652174,137,-0.6682926829
15164830,22363.28125,-2624,1.6088289393,-3088,-1.8933169834,-15408,9.4469650521,90,-25.3048780488,415,-5.487804878,1861,-113.4756097561,5,-0.0217391304,-45,-0.1956521739,137,-0.6682926829
15165470,22382.8125,-2224,1.3635806254,-3024,-1.8540772532,-15520,9.51563458,90,-25.3048780488,415,-5.487804878,1861,-113.4756097561,4,-0.0173913043,-41,-0.1782608696,136,-0.6634146341
15166110,22402.34375,-3072,1.8835070509,-2896,-1.7755977928,-15152,9.2900061312,448,-23.4146341463,384,-27.3170731707,1797,-109.5731707317,5,-0.0217391304,-45,-0.1956521739,136,-0.6634146341
15166750,22421.875,-3552,2.1778050276,-2960,-1.814837523,-15008,9.2017167382,308,-23.2926829268,382,-18.7804878049,1693,-103.2317073171,5,-0.0217391304,-48,-0.2086956522,135,-0.6585365854
15167390,22441.40625,-3344,2.0502759044,-2832,-1.7363580625,-15104,9.2605763335,308,-23.2926829268,382,-18.7804878049,1693,-103.2317073171,8,-0.0347826087,-54,-0.2347826087,138,-0.6731707317
15168030,22460.9375,-3296,2.0208461067,-2560,-1.5695892091,-15408,9.4469650521,305,-22.256097561,365,-18.5975609756,1623,-98.9634146341,3,-0.0130434783,-52,-0.2260869565,133,-0.6487804878
15168670,22480.46875,-3568,2.1876149601,-2384,-1.461679951,-15360,9.4175352544,305,-22.256097561,365,-18.5975609756,1623,-98.9634146341,6,-0.0260869565,-51,-0.2217391304,136,-0.6634146341
15169310,22500,-3584,2.1974248927,-2416,-1.4812998161,-15536,9.5254445126,142,-22.3780487805,367,-8.6585365854,1525,-92.987804878,4,-0.0173913043,-55,-0.2391304348,136,-0.6634146341
