Shimmer,Shimmer,Shimmer,Shimmer,Shimmer,Shimmer,Shimmer,Shimmer,Shimmer,Shimmer,Shimmer,Shimmer,Shimmer,Shimmer,Shimmer,Shimmer,Shimmer,Shimmer,Shimmer,Shimmer
Timestamp,Timestamp,Wide Range Accelerometer X,Wide Range Accelerometer X,Wide Range Accelerometer Y,Wide Range Accelerometer Y,Wide Range Accelerometer Z,Wide Range Accelerometer Z,Gyroscope X,Gyroscope X,Gyroscope Y,Gyroscope Y,Gyroscope Z,Gyroscope Z,Magnetometer X,Magnetometer X,Magnetometer Y,Magnetometer Y,Magnetometer Z,Magnetometer Z
RAW,CAL,RAW,CAL,RAW,CAL,RAW,CAL,RAW,CAL,RAW,CAL,RAW,CAL,RAW,CAL,RAW,CAL,RAW,CAL
no units,mSecs,no units,m/(sec^2),no units,m/(sec^2),no units,m/(sec^2),no units,deg/sec,no units,deg/sec,no units,deg/sec,no units,local,no units,local,no units,local
3937694,7734.375,-3712,2.2759043532,928,0.5689760883,-15744,9.6529736358,-12,2.0731707317,-34,0.7317073171,8,-0.487804878,3,-0.0130434783,-57,-0.247826087,139,-0.6780487805
3938334,7753.90625,-3664,2.2464745555,864,0.5297363581,-15648,9.5941140405,-12,2.0731707317,-34,0.7317073171,8,-0.487804878,6,-0.0260869565,-56,-0.2434782609,137,-0.6682926829
3938974,7773.4375,-3776,2.3151440834,992,0.6082158185,-15664,9.603923973,8,2.0731707317,-34,-0.487804878,15,-0.9146341463,6,-0.0260869565,-57,-0.247826087,137,-0.6682926829
3939614,7792.96875,-3760,2.3053341508,992,0.6082158185,-15664,9.603923973,-11,2.012195122,-33,0.6707317073,16,-0.9756097561,4,-0.0173913043,-58,-0.252173913,139,-0.6780487805
3940254,7812.5,-3664,2.2464745555,928,0.5689760883,-15712,9.6333537707,-11,2.012195122,-33,0.6707317073,16,-0.9756097561,5,-0.0217391304,-54,-0.2347826087,138,-0.6731707317
3940894,7832.03125,-3712,2.2759043532,896,0.5493562232,-15680,9.6137339056,-2,2.1951219512,-36,0.1219512195,23,-1.4024390244,6,-0.0260869565,-56,-0.2434782609,137,-0.6682926829
3941534,7851.5625,-3648,2.2366646229,880,0.5395462906,-15728,9.6431637032,-2,2.1951219512,-36,0.1219512195,23,-1.4024390244,6,-0.0260869565,-56,-0.2434782609,137,-0.6682926829
3942174,7871.09375,-3616,2.2170447578,848,0.5199264255,-15728,9.6431637032,-16,2.6829268293,-44,0.9756097561,19,-1.1585365854,4,-0.0173913043,-50,-0.2173913043,137,-0.6682926829
3942814,7890.625,-3552,2.1778050276,880,0.5395462906,-15552,9.5352544451,-16,2.743902439,-45,0.9756097561,10,-0.6097560976,5,-0.0217391304,-50,-0.2173913043,136,-0.6634146341
3943454,7910.15625,-3536,2.167995095,816,0.5003065604,-15552,9.5352544451,-16,2.743902439,-45,0.9756097561,10,-0.6097560976,4,-0.0173913043,-53,-0.2304347826,136,-0.6634146341
3944094,7929.6875,-3600,2.2072348253,896,0.5493562232,-15712,9.6333537707,3,2.5609756098,-42,-0.1829268293,9,-0.5487804878,4,-0.0173913043,-55,-0.2391304348,139,-0.6780487805
3944734,7949.21875,-3600,2.2072348253,912,0.5591661557,-15632,9.5843041079,3,2.5609756098,-42,-0.1829268293,9,-0.5487804878,5,-0.0217391304,-54,-0.2347826087,137,-0.6682926829
3945374,7968.75,-3520,2.1581851625,896,0.5493562232,-15568,9.5450643777,-34,2.6829268293,-44,2.0731707317,-2,0.1219512195,5,-0.0217391304,-57,-0.247826087,139,-0.6780487805
3946014,7988.28125,-3424,2.0993255671,896,0.5493562232,-15568,9.5450643777,-23,2.4390243902,-40,1.4024390244,-2,0.1219512195,6,-0.0260869565,-50,-0.2173913043,135,-0.6585365854
3946654,8007.8125,-3552,2.1778050276,928,0.5689760883,-15616,9.5744941754,-23,2.4390243902,-40,1.4024390244,-2,0.1219512195,6,-0.0260869565,-54,-0.2347826087,138,-0.6731707317
3947294,8027.34375,-3520,2.1581851625,800,0.4904966278,-15680,9.6137339056,0,2.0731707317,-34,0,2,-0.1219512195,6,-0.0260869565,-53,-0.2304347826,137,-0.6682926829
3947934,8046.875,-3600,2.2072348253,784,0.4806866953,-15648,9.5941140405,-27,1.9512195122,-32,1.6463414634,1,-0.0609756098,4,-0.0173913043,-54,-0.2347826087,137,-0.6682926829
3948574,8066.40625,-3536,2.167995095,784,0.4806866953,-15648,9.5941140405,-27,1.9512195122,-32,1.6463414634,1,-0.0609756098,4,-0.0173913043,-54,-0.2347826087,137,-0.6682926829
3949214,8085.9375,-3392,2.079705702,832,0.5101164929,-15760,9.6627835684,-19,2.1951219512,-36,1.1585365854,0,0,6,-0.0260869565,-55,-0.2391304348,138,-0.6731707317
3949854,8105.46875,-3360,2.0600858369,816,0.5003065604,-15664,9.603923973,-19,2.1951219512,-36,1.1585365854,0,0,1,-0.0043478261,-50,-0.2173913043,138,-0.6731707317
3950494,8125,-3424,2.0993255671,720,0.4414469651,-15632,9.5843041079,-10,2.3780487805,-39,0.6097560976,-13,0.7926829268,4,-0.0173913043,-54,-0.2347826087,137,-0.6682926829
3951134,8144.53125,-3584,2.1974248927,784,0.4806866953,-15632,9.5843041079,-28,2.1341463415,-35,1.7073170732,-16,0.9756097561,4,-0.0173913043,-52,-0.2260869565,140,-0.6829268293
3951774,8164.0625,-3488,2.1385652974,720,0.4414469651,-15536,9.5254445126,-28,2.1341463415,-35,1.7073170732,-16,0.9756097561,7,-0.0304347826,-57,-0.247826087,138,-0.6731707317
3952414,8183.59375,-3440,2.1091354997,864,0.5297363581,-15728,9.6431637032,-19,1.5853658537,-26,1.1585365854,-13,0.7926829268,3,-0.0130434783,-56,-0.2434782609,139,-0.6780487805
3953054,8203.125,-3456,2.1189454323,784,0.4806866953,-15808,9.692213366,-19,1.5853658537,-26,1.1585365854,-13,0.7926829268,3,-0.0130434783,-53,-0.2304347826,139,-0.6780487805
3953694,8222.65625,-3456,2.1189454323,832,0.5101164929,-15728,9.6431637032,-24,2.3170731707,-38,1.4634146341,-14,0.8536585366,4,-0.0173913043,-50,-0.2173913043,139,-0.6780487805
3954334,8242.1875,-3472,2.1287553648,848,0.5199264255,-15648,9.5941140405,-21,2.3170731707,-38,1.2804878049,-24,1.4634146341,5,-0.0217391304,-57,-0.247826087,139,-0.6780487805
3954974,8261.71875,-3552,2.1778050276,848,0.5199264255,-15696,9.6235438381,-21,2.3170731707,-38,1.2804878049,-24,1.4634146341,5,-0.0217391304,-56,-0.2434782609,140,-0.6829268293
3955614,8281.25,-3584,2.1974248927,784,0.4806866953,-15696,9.6235438381,-9,1.8902439024,-31,0.5487804878,-23,1.4024390244,5,-0.0217391304,-52,-0.2260869565,138,-0.6731707317
3956254,8300.78125,-3568,2.1876149601,720,0.4414469651,-15648,9.5941140405,-9,1.8902439024,-31,0.5487804878,-23,1.4024390244,5,-0.0217391304,-52,-0.2260869565,137,-0.6682926829
3956894,8320.3125,-3568,2.1876149601,720,0.4414469651,-15696,9.6235438381,-12,2.1341463415,-35,0.7317073171,-22,1.3414634146,5,-0.0217391304,-56,-0.2434782609,139,-0.6780487805
3957534,8339.84375,-3520,2.1581851625,688,0.4218270999,-15776,9.6725935009,-22,2.1341463415,-35,1.3414634146,-18,1.0975609756,3,-0.0130434783,-55,-0.2391304348,140,-0.6829268293
3958174,8359.375,-3552,2.1778050276,704,0.4316370325,-15728,9.6431637032,-22,2.1341463415,-35,1.3414634146,-18,1.0975609756,6,-0.0260869565,-53,-0.2304347826,138,-0.6731707317
3958814,8378.90625,-3616,2.2170447578,720,0.4414469651,-15888,9.7412630288,-5,2.3170731707,-38,0.3048780488,-19,1.1585365854,2,-0.0086956522,-49,-0.2130434783,137,-0.6682926829
3959454,8398.4375,-3600,2.2072348253,704,0.4316370325,-15872,9.7314530963,-16,2.4390243902,-40,0.9756097561,-22,1.3414634146,3,-0.0130434783,-53,-0.2304347826,137,-0.6682926829
3960094,8417.96875,-3552,2.1778050276,608,0.3727774372,-15760,9.6627835684,-16,2.4390243902,-40,0.9756097561,-22,1.3414634146,3,-0.0130434783,-56,-0.2434782609,140,-0.6829268293
3960734,8437.5,-3472,2.1287553648,704,0.4316370325,-15776,9.6725935009,-25,2.987804878,-49,1.5243902439,-19,1.1585365854,5,-0.0217391304,-55,-0.2391304348,138,-0.6731707317
3961374,8457.03125,-3440,2.1091354997,640,0.3923973023,-15792,9.6824034335,-25,2.987804878,-49,1.5243902439,-19,1.1585365854,6,-0.0260869565,-55,-0.2391304348,138,-0.6731707317
3962014,8476.5625,-3424,2.0993255671,528,0.3237277744,-15808,9.692213366,-9,2.8658536585,-47,0.5487804878,-12,0.7317073171,3,-0.0130434783,-50,-0.2173913043,139,-0.6780487805
3962654,8496.09375,-3488,2.1385652974,592,0.3629675046,-15920,9.7608828939,14,3.3536585366,-55,-0.8536585366,-15,0.9146341463,4,-0.0173913043,-50,-0.2173913043,139,-0.6780487805
3963294,8515.625,-3632,2.2268546904,640,0.3923973023,-15920,9.7608828939,14,3.3536585366,-55,-0.8536585366,-15,0.9146341463,5,-0.0217391304,-54,-0.2347826087,139,-0.6780487805
3963934,8535.15625,-3552,2.1778050276,656,0.4022072348,-15776,9.6725935009,-21,3.8414634146,-63,1.2804878049,-15,0.9146341463,6,-0.0260869565,-54,-0.2347826087,139,-0.6780487805
3964574,8554.6875,-3472,2.1287553648,656,0.4022072348,-15792,9.6824034335,-21,3.8414634146,-63,1.2804878049,-15,0.9146341463,4,-0.0173913043,-53,-0.2304347826,139,-0.6780487805
3965214,8574.21875,-3392,2.079705702,608,0.3727774372,-15792,9.6824034335,-17,4.2682926829,-70,1.0365853659,-16,0.9756097561,5,-0.0217391304,-54,-0.2347826087,139,-0.6780487805
3965854,8593.75,-3552,2.1778050276,688,0.4218270999,-15744,9.6529736358,1,4.0853658537,-67,-0.0609756098,-16,0.9756097561,3,-0.0130434783,-50,-0.2173913043,137,-0.6682926829
3966494,8613.28125,-3568,2.1876149601,768,0.4708767627,-15824,9.7020232986,1,4.0853658537,-67,-0.0609756098,-16,0.9756097561,4,-0.0173913043,-50,-0.2173913043,138,-0.6731707317
3967134,8632.8125,-3584,2.1974248927,800,0.4904966278,-15792,9.6824034335,-3,4.0853658537,-67,0.1829268293,-14,0.8536585366,6,-0.0260869565,-52,-0.2260869565,137,-0.6682926829
3967774,8652.34375,-3504,2.1483752299,720,0.4414469651,-15728,9.6431637032,-3,4.0853658537,-67,0.1829268293,-14,0.8536585366,5,-0.0217391304,-52,-0.2260869565,138,-0.6731707317
3968414,8671.875,-3440,2.1091354997,720,0.4414469651,-15680,9.6137339056,8,4.1463414634,-68,-0.487804878,-10,0.6097560976,2,-0.0086956522,-52,-0.2260869565,136,-0.6634146341
3969054,8691.40625,-3680,2.256284488,688,0.4218270999,-15696,9.6235438381,-10,4.512195122,-74,0.6097560976,-17,1.0365853659,3,-0.0130434783,-55,-0.2391304348,139,-0.6780487805
3969694,8710.9375,-3616,2.2170447578,688,0.4218270999,-15600,9.5646842428,-10,4.512195122,-74,0.6097560976,-17,1.0365853659,3,-0.0130434783,-54,-0.2347826087,138,-0.6731707317
3970334,8730.46875,-3456,2.1189454323,624,0.3825873697,-15584,9.5548743102,-24,4.4512195122,-73,1.4634146341,-17,1.0365853659,3,-0.0130434783,-55,-0.2391304348,139,-0.6780487805
3970974,8750,-3424,2.0993255671,704,0.4316370325,-15552,9.5352544451,-1,4.0853658537,-67,0.0609756098,-12,0.7317073171,3,-0.0130434783,-56,-0.2434782609,139,-0.6780487805
3971614,8769.53125,-3520,2.1581851625,704,0.4316370325,-15536,9.5254445126,-1,4.0853658537,-67,0.0609756098,-12,0.7317073171,3,-0.0130434783,-52,-0.2260869565,137,-0.6682926829
3972254,8789.0625,-3552,2.1778050276,704,0.4316370325,-15536,9.5254445126,-13,3.7195121951,-61,0.7926829268,-10,0.6097560976,5,-0.0217391304,-56,-0.2434782609,138,-0.6731707317
3972894,8808.59375,-3504,2.1483752299,752,0.4610668302,-15520,9.51563458,-13,3.7195121951,-61,0.7926829268,-10,0.6097560976,2,-0.0086956522,-51,-0.2217391304,137,-0.6682926829
3973534,8828.125,-3584,2.1974248927,832,0.5101164929,-15568,9.5450643777,2,3.5975609756,-59,-0.1219512195,-6,0.3658536585,4,-0.0173913043,-50,-0.2173913043,138,-0.6731707317
3974174,8847.65625,-3536,2.167995095,848,0.5199264255,-15536,9.5254445126,-1,3.2926829268,-54,0.0609756098,-6,0.3658536585,3,-0.0130434783,-49,-0.2130434783,138,-0.6731707317
3974814,8867.1875,14544,-8.9172286941,-14576,-8.9368485592,-24096,14.7737584304,-1,3.2926829268,-54,0.0609756098,-6,0.3658536585,3,-0.0130434783,-54,-0.2347826087,142,-0.6926829268
3975454,8886.71875,-3744,2.2955242183,2464,1.5107296137,-16384,10.0453709381,1556,-36.7073170732,602,-94.8780487805,-106,6.4634146341,7,-0.0304347826,-53,-0.2304347826,137,-0.6682926829
3976094,8906.25,-9152,5.6112814224,2416,1.4812998161,-16528,10.1336603311,1556,-36.7073170732,602,-94.8780487805,-106,6.4634146341,6,-0.0260869565,-53,-0.2304347826,135,-0.6585365854
3976734,8925.78125,-7616,4.669527897,3088,1.8933169834,-16752,10.2709993869,-467,2.3780487805,-39,28.4756097561,1,-0.0609756098,5,-0.0217391304,-52,-0.2260869565,136,-0.6634146341
3977374,8945.3125,-5392,3.3059472716,304,0.1863887186,-16640,10.202329859,-1119,23.1097560976,-379,68.2317073171,0,0,5,-0.0217391304,-55,-0.2391304348,140,-0.6829268293
3978014,8964.84375,1248,-0.7651747394,-1360,-0.8338442673,-15072,9.2409564684,-1119,23.1097560976,-379,68.2317073171,0,0,3,-0.0130434783,-53,-0.2304347826,139,-0.6780487805
3978654,8984.375,-2944,1.8050275904,448,0.2746781116,-16256,9.9668914776,203,-4.8170731707,79,-12.3780487805,30,-1.8292682927,5,-0.0217391304,-50,-0.2173913043,139,-0.6780487805
3979294,9003.90625,-3744,2.2955242183,16,0.0098099326,-16736,10.2611894543,145,-0.3048780488,5,-8.8414634146,-1,0.0609756098,4,-0.0173913043,-51,-0.2217391304,138,-0.6731707317
3979934,9023.4375,-3728,2.2857142857,448,0.2746781116,-17040,10.4475781729,145,-0.3048780488,5,-8.8414634146,-1,0.0609756098,3,-0.0130434783,-52,-0.2260869565,138,-0.6731707317
3980574,9042.96875,-4112,2.5211526671,256,0.1569589209,-17200,10.5456774985,-9,3.3536585366,-55,0.5487804878,-15,0.9146341463,6,-0.0260869565,-53,-0.2304347826,138,-0.6731707317
3981214,9062.5,-3904,2.3936235438,304,0.1863887186,-16752,10.2709993869,-9,3.3536585366,-55,0.5487804878,-15,0.9146341463,4,-0.0173913043,-54,-0.2347826087,139,-0.6780487805
3981854,9082.03125,-3600,2.2072348253,272,0.1667688535,-16400,10.0551808706,-65,5.3048780488,-87,3.9634146341,4,-0.243902439,4,-0.0173913043,-55,-0.2391304348,140,-0.6829268293
3982494,9101.5625,-3280,2.0110361741,352,0.2158185162,-16208,9.93746168,-9,5.9146341463,-97,0.5487804878,7,-0.4268292683,4,-0.0173913043,-50,-0.2173913043,139,-0.6780487805
3983134,9121.09375,-3216,1.9717964439,368,0.2256284488,-15856,9.7216431637,-9,5.9146341463,-97,0.5487804878,7,-0.4268292683,5,-0.0217391304,-55,-0.2391304348,138,-0.6731707317
3983774,9140.625,-3376,2.0698957695,464,0.2844880441,-15728,9.6431637032,83,5.9146341463,-97,-5.0609756098,3,-0.1829268293,4,-0.0173913043,-55,-0.2391304348,139,-0.6780487805
3984414,9160.15625,-3648,2.2366646229,560,0.3433476395,-15584,9.5548743102,83,5.9146341463,-97,-5.0609756098,3,-0.1829268293,3,-0.0130434783,-51,-0.2217391304,140,-0.6829268293
3985054,9179.6875,-3680,2.256284488,576,0.353157572,-15472,9.4862047823,6,5.8536585366,-96,-0.3658536585,4,-0.243902439,3,-0.0130434783,-51,-0.2217391304,139,-0.6780487805
3985694,9199.21875,-3424,2.0993255671,672,0.4120171674,-15424,9.4567749847,-49,5.1829268293,-85,2.987804878,3,-0.1829268293,3,-0.0130434783,-47,-0.2043478261,137,-0.6682926829
3986334,9218.75,-3264,2.0012262416,736,0.4512568976,-15456,9.4763948498,-49,5.1829268293,-85,2.987804878,3,-0.1829268293,5,-0.0217391304,-55,-0.2391304348,140,-0.6829268293
3986974,9238.28125,-3248,1.991416309,736,0.4512568976,-15472,9.4862047823,19,3.9634146341,-65,-1.1585365854,14,-0.8536585366,4,-0.0173913043,-50,-0.2173913043,137,-0.6682926829
3987614,9257.8125,-3408,2.0895156346,720,0.4414469651,-15488,9.4960147149,19,3.9634146341,-65,-1.1585365854,14,-0.8536585366,2,-0.0086956522,-50,-0.2173913043,137,-0.6682926829
3988254,9277.34375,-3504,2.1483752299,784,0.4806866953,-15568,9.5450643777,-4,3.9024390244,-64,0.243902439,9,-0.5487804878,4,-0.0173913043,-56,-0.2434782609,139,-0.6780487805
3988894,9296.875,-3296,2.0208461067,800,0.4904966278,-15632,9.5843041079,-24,3.7804878049,-62,1.4634146341,4,-0.243902439,2,-0.0086956522,-55,-0.2391304348,139,-0.6780487805
3989534,9316.40625,-3232,1.9816063765,640,0.3923973023,-15632,9.5843041079,-24,3.7804878049,-62,1.4634146341,4,-0.243902439,2,-0.0086956522,-47,-0.2043478261,139,-0.6780487805
3990174,9335.9375,-3232,1.9816063765,608,0.3727774372,-15568,9.5450643777,6,3.1707317073,-52,-0.3658536585,-6,0.3658536585,3,-0.0130434783,-51,-0.2217391304,138,-0.6731707317
3990814,9355.46875,-16112,9.8786020846,6512,3.9926425506,704,-0.4316370325,938,-100.7926829268,1653,-57.1951219512,-194,11.8292682927,1,-0.0043478261,-51,-0.2217391304,138,-0.6731707317
3991454,9375,-8080,4.9540159411,3424,2.0993255671,-12096,7.4163090129,938,-100.7926829268,1653,-57.1951219512,-194,11.8292682927,6,-0.0260869565,-51,-0.2217391304,136,-0.6634146341
3992094,9394.53125,-7024,4.3065603924,2896,1.7755977928,-14848,9.1036174126,460,-2.987804878,49,-28.0487804878,-98,5.9756097561,7,-0.0304347826,-52,-0.2260869565,134,-0.6536585366
3992734,9414.0625,-7696,4.7185775598,2368,1.4518700184,-16336,10.0159411404,460,-2.987804878,49,-28.0487804878,-98,5.9756097561,8,-0.0347826087,-53,-0.2304347826,135,-0.6585365854
3993374,9433.59375,-7344,4.5027590435,624,0.3825873697,-16608,10.1827099939,-814,13.5975609756,-223,49.6341463415,126,-7.6829268293,6,-0.0260869565,-49,-0.2130434783,137,-0.6682926829
3994014,9453.125,-2752,1.6873083998,-736,-0.4512568976,-15424,9.4567749847,-986,5.7317073171,-94,60.1219512195,-92,5.6097560976,3,-0.0130434783,-49,-0.2130434783,139,-0.6780487805
3994654,9472.65625,-1184,0.7259350092,-448,-0.2746781116,-15600,9.5646842428,-986,5.7317073171,-94,60.1219512195,-92,5.6097560976,3,-0.0130434783,-54,-0.2347826087,140,-0.6829268293
3995294,9492.1875,-2944,1.8050275904,176,0.1079092581,-16736,10.2611894543,19,0.1829268293,-3,-1.1585365854,-19,1.1585365854,3,-0.0130434783,-49,-0.2130434783,139,-0.6780487805
3995934,9511.71875,-3232,1.9816063765,208,0.1275291232,-16928,10.378908645,19,0.1829268293,-3,-1.1585365854,-19,1.1585365854,3,-0.0130434783,-49,-0.2130434783,140,-0.6829268293
3996574,9531.25,-4112,2.5211526671,320,0.1961986511,-16768,10.2808093194,196,1.7073170732,-28,-11.9512195122,-32,1.9512195122,4,-0.0173913043,-52,-0.2260869565,139,-0.6780487805
3997214,9550.78125,-4624,2.8350705089,256,0.1569589209,-16576,10.1630901288,-73,4.9390243902,-81,4.4512195122,-30,1.8292682927,6,-0.0260869565,-55,-0.2391304348,140,-0.6829268293
3997854,9570.3125,-3904,2.3936235438,272,0.1667688535,-16256,9.9668914776,-73,4.9390243902,-81,4.4512195122,-30,1.8292682927,4,-0.0173913043,-48,-0.2086956522,137,-0.6682926829
3998494,9589.84375,-3376,2.0698957695,240,0.1471489884,-16080,9.8589822195,-71,5.6097560976,-92,4.3292682927,-8,0.487804878,2,-0.0086956522,-49,-0.2130434783,138,-0.6731707317
3999134,9609.375,-3168,1.9423666462,256,0.1569589209,-15856,9.7216431637,-71,5.6097560976,-92,4.3292682927,-8,0.487804878,4,-0.0173913043,-51,-0.2217391304,138,-0.6731707317
3999774,9628.90625,-3488,2.1385652974,336,0.2060085837,-15712,9.6333537707,102,5.3658536585,-88,-6.2195121951,-11,0.6707317073,5,-0.0217391304,-52,-0.2260869565,140,-0.6829268293
4000414,9648.4375,-3776,2.3151440834,336,0.2060085837,-15600,9.5646842428,78,5.1829268293,-85,-4.756097561,-14,0.8536585366,3,-0.0130434783,-53,-0.2304347826,139,-0.6780487805
4001054,9667.96875,-3872,2.3740036787,304,0.1863887186,-15456,9.4763948498,78,5.1829268293,-85,-4.756097561,-14,0.8536585366,4,-0.0173913043,-47,-0.2043478261,139,-0.6780487805
4001694,9687.5,-3600,2.2072348253,336,0.2060085837,-15376,9.427345187,-51,5.4268292683,-89,3.1097560976,-6,0.3658536585,5,-0.0217391304,-53,-0.2304347826,138,-0.6731707317
4002334,9707.03125,-3216,1.9717964439,480,0.2942979767,-15312,9.3881054568,14,4.3292682927,-71,-0.8536585366,-4,0.243902439,4,-0.0173913043,-54,-0.2347826087,140,-0.6829268293
4002974,9726.5625,-3232,1.9816063765,432,0.264868179,-15280,9.3684855917,14,4.3292682927,-71,-0.8536585366,-4,0.243902439,4,-0.0173913043,-50,-0.2173913043,139,-0.6780487805
4003614,9746.09375,-3472,2.1287553648,448,0.2746781116,-15328,9.3979153893,46,3.1707317073,-52,-2.8048780488,-6,0.3658536585,5,-0.0217391304,-54,-0.2347826087,139,-0.6780487805
4004254,9765.625,-3520,2.1581851625,464,0.2844880441,-15344,9.4077253219,46,3.1707317073,-52,-2.8048780488,-6,0.3658536585,3,-0.0130434783,-52,-0.2260869565,138,-0.6731707317
4004894,9785.15625,-3472,2.1287553648,400,0.2452483139,-15408,9.4469650521,2,2.8658536585,-47,-0.1219512195,-10,0.6097560976,4,-0.0173913043,-49,-0.2130434783,138,-0.6731707317
4005534,9804.6875,-3424,2.0993255671,400,0.2452483139,-15488,9.4960147149,8,2.8658536585,-47,-0.487804878,-17,1.0365853659,4,-0.0173913043,-47,-0.2043478261,137,-0.6682926829
4006174,9824.21875,-5216,3.1980380135,1920,1.1771919068,-24080,14.7639484979,8,2.8658536585,-47,-0.487804878,-17,1.0365853659,4,-0.0173913043,-53,-0.2304347826,140,-0.6829268293
4006814,9843.75,-5648,3.4629061925,3856,2.3641937462,-17024,10.4377682403,917,-46.3414634146,760,-55.9146341463,-93,5.6707317073,7,-0.0304347826,-50,-0.2173913043,136,-0.6634146341
4007454,9863.28125,-6416,3.9337829552,2544,1.5597792765,-15632,9.5843041079,917,-46.3414634146,760,-55.9146341463,-93,5.6707317073,4,-0.0173913043,-48,-0.2086956522,136,-0.6634146341
4008094,9882.8125,-6304,3.8651134273,2656,1.6284488044,-15744,9.6529736358,215,-6.2195121951,102,-13.1097560976,-67,4.0853658537,8,-0.0347826087,-49,-0.2130434783,134,-0.6536585366
4008734,9902.34375,-7552,4.6302881668,880,0.5395462906,-16944,10.3887185776,-729,16.4024390244,-269,44.4512195122,113,-6.8902439024,6,-0.0260869565,-46,-0.2,133,-0.6487804878
4009374,9921.875,-3984,2.4426732066,-592,-0.3629675046,-16176,9.9178418148,-729,16.4024390244,-269,44.4512195122,113,-6.8902439024,5,-0.0217391304,-51,-0.2217391304,139,-0.6780487805
4010014,9941.40625,-640,0.3923973023,-1264,-0.774984672,-15264,9.3586756591,-629,0.8536585366,-14,38.3536585366,-54,3.2926829268,6,-0.0260869565,-48,-0.2086956522,139,-0.6780487805
4010654,9960.9375,-3440,2.1091354997,-112,-0.0686695279,-16560,10.1532801962,99,-0.487804878,8,-6.0365853659,1,-0.0609756098,6,-0.0260869565,-49,-0.2130434783,139,-0.6780487805
4011294,9980.46875,-3888,2.3838136113,-208,-0.1275291232,-17104,10.4868179031,99,-0.487804878,8,-6.0365853659,1,-0.0609756098,3,-0.0130434783,-48,-0.2086956522,137,-0.6682926829
4011934,10000,-4064,2.4917228694,0,0,-17040,10.4475781729,88,2.3780487805,-39,-5.3658536585,-30,1.8292682927,4,-0.0173913043,-52,-0.2260869565,140,-0.6829268293
4012574,10019.53125,-4416,2.7075413857,-32,-0.0196198651,-16976,10.4083384427,88,2.3780487805,-39,-5.3658536585,-30,1.8292682927,3,-0.0130434783,-50,-0.2173913043,139,-0.6780487805
4013214,10039.0625,-4112,2.5211526671,-16,-0.0098099326,-16720,10.2513795218,-78,5.4268292683,-89,4.756097561,-19,1.1585365854,5,-0.0217391304,-52,-0.2260869565,138,-0.6731707317
4013854,10058.59375,-3712,2.2759043532,-32,-0.0196198651,-16384,10.0453709381,-34,6.5853658537,-108,2.0731707317,1,-0.0609756098,4,-0.0173913043,-49,-0.2130434783,139,-0.6780487805
4014494,10078.125,-3536,2.167995095,32,0.0196198651,-16208,9.93746168,-34,6.5853658537,-108,2.0731707317,1,-0.0609756098,1,-0.0043478261,-47,-0.2043478261,137,-0.6682926829
4015134,10097.65625,-3664,2.2464745555,80,0.0490496628,-16016,9.8197424893,74,7.5609756098,-124,-4.512195122,5,-0.3048780488,6,-0.0260869565,-52,-0.2260869565,138,-0.6731707317
4015774,10117.1875,-3952,2.4230533415,144,0.088289393,-15760,9.6627835684,74,7.5609756098,-124,-4.512195122,5,-0.3048780488,3,-0.0130434783,-49,-0.2130434783,138,-0.6731707317
4016414,10136.71875,-3936,2.413243409,304,0.1863887186,-15456,9.4763948498,32,7.743902439,-127,-1.9512195122,9,-0.5487804878,4,-0.0173913043,-47,-0.2043478261,138,-0.6731707317
4017054,10156.25,-3728,2.2857142857,400,0.2452483139,-15296,9.3782955242,-28,7.0731707317,-116,1.7073170732,12,-0.7317073171,4,-0.0173913043,-54,-0.2347826087,138,-0.6731707317
4017694,10175.78125,-3504,2.1483752299,352,0.2158185162,-15216,9.3292458614,-28,7.0731707317,-116,1.7073170732,12,-0.7317073171,3,-0.0130434783,-46,-0.2,137,-0.6682926829
4018334,10195.3125,-3472,2.1287553648,480,0.2942979767,-15168,9.2998160638,42,5.7926829268,-95,-2.5609756098,24,-1.4634146341,5,-0.0217391304,-50,-0.2173913043,137,-0.6682926829
4018974,10214.84375,-3664,2.2464745555,464,0.2844880441,-15232,9.339055794,42,5.7926829268,-95,-2.5609756098,24,-1.4634146341,5,-0.0217391304,-52,-0.2260869565,138,-0.6731707317
4019614,10234.375,-3728,2.2857142857,448,0.2746781116,-15216,9.3292458614,42,4.512195122,-74,-2.5609756098,29,-1.7682926829,4,-0.0173913043,-47,-0.2043478261,136,-0.6634146341
4020254,10253.90625,-3648,2.2366646229,512,0.3139178418,-15216,9.3292458614,2,3.1097560976,-51,-0.1219512195,34,-2.0731707317,5,-0.0217391304,-53,-0.2304347826,139,-0.6780487805
4020894,10273.4375,-3440,2.1091354997,480,0.2942979767,-15216,9.3292458614,2,3.1097560976,-51,-0.1219512195,34,-2.0731707317,3,-0.0130434783,-48,-0.2086956522,137,-0.6682926829
4021534,10292.96875,-3456,2.1189454323,368,0.2256284488,-15120,9.2703862661,69,1.8902439024,-31,-4.2073170732,41,-2.5,6,-0.0260869565,-50,-0.2173913043,138,-0.6731707317
4022174,10312.5,-4368,2.678111588,-352,-0.2158185162,-12512,7.6713672594,-245,-42.8658536585,703,14.9390243902,211,-12.8658536585,4,-0.0173913043,-51,-0.2217391304,139,-0.6780487805
4022814,10332.03125,-11088,6.7982832618,3488,2.1385652974,-7456,4.5714285714,-245,-42.8658536585,703,14.9390243902,211,-12.8658536585,7,-0.0304347826,-51,-0.2217391304,136,-0.6634146341
4023454,10351.5625,-9376,5.7486204782,1440,0.8828939301,-13008,7.9754751686,934,-24.5731707317,403,-56.9512195122,48,-2.9268292683,10,-0.0434782609,-49,-0.2130434783,134,-0.6536585366
4024094,10371.09375,-8384,5.1404046597,3216,1.9717964439,-15360,9.4175352544,934,-24.5731707317,403,-56.9512195122,48,-2.9268292683,8,-0.0347826087,-43,-0.1869565217,132,-0.643902439
4024734,10390.625,-9888,6.06253832,1296,0.7946045371,-17376,10.6535867566,-451,5.1219512195,-84,27.5,308,-18.7804878049,9,-0.0391304348,-49,-0.2130434783,132,-0.643902439
4025374,10410.15625,-3648,2.2366646229,-2448,-1.5009196812,-16080,9.8589822195,-1629,32.987804878,-541,99.3292682927,-1,0.0609756098,6,-0.0260869565,-48,-0.2086956522,135,-0.6585365854
4026014,10429.6875,192,-0.1177191907,-608,-0.3727774372,-15024,9.2115266708,-1629,32.987804878,-541,99.3292682927,-1,0.0609756098,6,-0.0260869565,-47,-0.2043478261,135,-0.6585365854
4026654,10449.21875,-4128,2.5309625996,80,0.0490496628,-16848,10.3298589822,307,-6.7073170732,110,-18.7195121951,86,-5.243902439,5,-0.0217391304,-48,-0.2086956522,137,-0.6682926829
4027294,10468.75,-4080,2.501532802,-496,-0.3041079093,-17504,10.732066217,307,-6.7073170732,110,-18.7195121951,86,-5.243902439,5,-0.0217391304,-49,-0.2130434783,139,-0.6780487805
4027934,10488.28125,-4608,2.8252605763,-112,-0.0686695279,-17792,10.9086450031,212,-0.1219512195,2,-12.9268292683,28,-1.7073170732,5,-0.0217391304,-47,-0.2043478261,138,-0.6731707317
4028574,10507.8125,-4944,3.03126916,-288,-0.176578786,-17648,10.8203556101,-50,5.0609756098,-83,3.0487804878,25,-1.5243902439,6,-0.0260869565,-52,-0.2260869565,138,-0.6731707317
4029214,10527.34375,-4288,2.6290619252,-272,-0.1667688535,-17168,10.5260576334,-50,5.0609756098,-83,3.0487804878,25,-1.5243902439,5,-0.0217391304,-51,-0.2217391304,137,-0.6682926829
4029854,10546.875,-3936,2.413243409,-208,-0.1275291232,-16912,10.3690987124,-59,8.2926829268,-136,3.5975609756,41,-2.5,5,-0.0217391304,-51,-0.2217391304,136,-0.6634146341
4030494,10566.40625,-3888,2.3838136113,-176,-0.1079092581,-16576,10.1630901288,-59,8.2926829268,-136,3.5975609756,41,-2.5,2,-0.0086956522,-48,-0.2086956522,136,-0.6634146341
4031134,10585.9375,-3968,2.4328632741,-128,-0.0784794605,-16416,10.0649908032,56,9.512195122,-156,-3.4146341463,59,-3.5975609756,6,-0.0260869565,-51,-0.2217391304,137,-0.6682926829
4031774,10605.46875,-4352,2.6683016554,-16,-0.0098099326,-16320,10.0061312078,122,10.5487804878,-173,-7.4390243902,77,-4.6951219512,4,-0.0173913043,-50,-0.2173913043,136,-0.6634146341
4032414,10625,-4384,2.6879215205,96,0.0588595953,-16048,9.8393623544,122,10.5487804878,-173,-7.4390243902,77,-4.6951219512,5,-0.0217391304,-49,-0.2130434783,136,-0.6634146341
4033054,10644.53125,-4176,2.5603923973,176,0.1079092581,-15824,9.7020232986,28,12.012195122,-197,-1.7073170732,75,-4.5731707317,5,-0.0217391304,-52,-0.2260869565,136,-0.6634146341
4033694,10664.0625,-3952,2.4230533415,288,0.176578786,-15424,9.4567749847,48,11.7682926829,-193,-2.9268292683,87,-5.3048780488,5,-0.0217391304,-53,-0.2304347826,138,-0.6731707317
4034334,10683.59375,-3904,2.3936235438,384,0.2354383814,-15312,9.3881054568,48,11.7682926829,-193,-2.9268292683,87,-5.3048780488,5,-0.0217391304,-53,-0.2304347826,135,-0.6585365854
4034974,10703.125,-3856,2.3641937462,464,0.2844880441,-15136,9.2801961987,87,10.1219512195,-166,-5.3048780488,104,-6.3414634146,7,-0.0304347826,-49,-0.2130434783,135,-0.6585365854
4035614,10722.65625,-3296,2.0208461067,256,0.1569589209,-14848,9.1036174126,87,10.1219512195,-166,-5.3048780488,104,-6.3414634146,6,-0.0260869565,-52,-0.2260869565,136,-0.6634146341
4036254,10742.1875,-2864,1.7559779277,400,0.2452483139,-14416,8.8387492336,16,7.6829268293,-126,-0.9756097561,113,-6.8902439024,6,-0.0260869565,-50,-0.2173913043,137,-0.6682926829
4036894,10761.71875,-2032,1.2458614347,704,0.4316370325,-14320,8.7798896383,-75,4.1463414634,-68,4.5731707317,71,-4.3292682927,6,-0.0260869565,-52,-0.2260869565,137,-0.6682926829
4037534,10781.25,-816,0.5003065604,624,0.3825873697,-14208,8.7112201104,-75,4.1463414634,-68,4.5731707317,71,-4.3292682927,8,-0.0347826087,-56,-0.2434782609,137,-0.6682926829
4038174,10800.78125,0,0,416,0.2550582465,-13936,8.5444512569,71,1.0365853659,-17,-4.3292682927,6,-0.3658536585,6,-0.0260869565,-56,-0.2434782609,137,-0.6682926829
4038814,10820.3125,480,-0.2942979767,528,0.3237277744,-13824,8.475781729,71,1.0365853659,-17,-4.3292682927,6,-0.3658536585,7,-0.0304347826,-53,-0.2304347826,136,-0.6634146341
4039454,10839.84375,1024,-0.6278356836,560,0.3433476395,-14096,8.6425505825,151,-3.4756097561,57,-9.2073170732,-115,7.012195122,7,-0.0304347826,-52,-0.2260869565,136,-0.6634146341
4040094,10859.375,1504,-0.9221336603,448,0.2746781116,-14240,8.7308399755,168,-6.2804878049,103,-10.243902439,-265,16.1585365854,8,-0.0347826087,-50,-0.2173913043,137,-0.6682926829
4040734,10878.90625,1280,-0.7847946045,432,0.264868179,-14368,8.8093194359,168,-6.2804878049,103,-10.243902439,-265,16.1585365854,8,-0.0347826087,-48,-0.2086956522,135,-0.6585365854
4041374,10898.4375,864,-0.5297363581,288,0.176578786,-14304,8.7700797057,164,-5.8536585366,96,-10,-471,28.7195121951,9,-0.0391304348,-49,-0.2130434783,134,-0.6536585366
4042014,10917.96875,880,-0.5395462906,176,0.1079092581,-14304,8.7700797057,39,-5.1829268293,85,-2.3780487805,-708,43.1707317073,9,-0.0391304348,-48,-0.2086956522,135,-0.6585365854
4042654,10937.5,1360,-0.8338442673,-192,-0.1177191907,-14416,8.8387492336,39,-5.1829268293,85,-2.3780487805,-708,43.1707317073,8,-0.0347826087,-50,-0.2173913043,135,-0.6585365854
4043294,10957.03125,1280,-0.7847946045,-560,-0.3433476395,-14224,8.7210300429,260,-6.1585365854,101,-15.8536585366,-864,52.6829268293,7,-0.0304347826,-48,-0.2086956522,135,-0.6585365854
4043934,10976.5625,352,-0.2158185162,-784,-0.4806866953,-13952,8.5542611895,260,-6.1585365854,101,-15.8536585366,-864,52.6829268293,10,-0.0434782609,-44,-0.1913043478,133,-0.6487804878
4044574,10996.09375,-224,0.1373390558,-1088,-0.6670754139,-14048,8.6131207848,169,-8.8414634146,145,-10.3048780488,-1027,62.6219512195,9,-0.0391304348,-38,-0.1652173913,132,-0.643902439
4045214,11015.625,-48,0.0294297977,-1472,-0.9025137952,-13776,8.4463519313,141,-13.5365853659,222,-8.5975609756,-1161,70.7926829268,6,-0.0260869565,-41,-0.1782608696,131,-0.6390243902
4045854,11035.15625,-944,0.5787860208,-1568,-0.9613733906,-13920,8.5346413243,141,-13.5365853659,222,-8.5975609756,-1161,70.7926829268,9,-0.0391304348,-34,-0.147826087,133,-0.6487804878
4046494,11054.6875,-2064,1.2654812998,-1712,-1.0496627836,-13936,8.5444512569,-92,-16.7073170732,274,5.6097560976,-1274,77.6829268293,9,-0.0391304348,-37,-0.1608695652,131,-0.6390243902
4047134,11074.21875,-1328,0.8142244022,-2192,-1.3439607603,-13984,8.5738810546,-92,-16.7073170732,274,5.6097560976,-1274,77.6829268293,9,-0.0391304348,-30,-0.1304347826,131,-0.6390243902
4047774,11093.75,-704,0.4316370325,-2976,-1.8246474555,-13776,8.4463519313,46,-19.9390243902,327,-2.8048780488,-1314,80.1219512195,7,-0.0304347826,-29,-0.1260869565,132,-0.643902439
4048414,11113.28125,-2128,1.30472103,-3040,-1.8638871858,-14176,8.6916002452,169,-24.3292682927,399,-10.3048780488,-1398,85.243902439,7,-0.0304347826,-24,-0.1043478261,132,-0.643902439
4049054,11132.8125,-3296,2.0208461067,-3296,-2.0208461067,-14560,8.9270386266,169,-24.3292682927,399,-10.3048780488,-1398,85.243902439,8,-0.0347826087,-26,-0.1130434783,131,-0.6390243902
4049694,11152.34375,-2496,1.5303494788,-3824,-2.3445738811,-14816,9.0839975475,-80,-24.2073170732,397,4.8780487805,-1479,90.1829268293,6,-0.0260869565,-22,-0.0956521739,131,-0.6390243902
4050334,11171.875,-1984,1.216431637,-4304,-2.6388718578,-14720,9.0251379522,-80,-24.2073170732,397,4.8780487805,-1479,90.1829268293,5,-0.0217391304,-17,-0.0739130435,129,-0.6292682927
4050974,11191.40625,-3184,1.9521765788,-4608,-2.8252605763,-14704,9.0153280196,110,-26.8902439024,441,-6.7073170732,-1515,92.3780487805,5,-0.0217391304,-18,-0.0782608696,130,-0.6341463415
4051614,11210.9375,-3520,2.1581851625,-5216,-3.1980380135,-14672,8.9957081545,-257,-27.9268292683,458,15.6707317073,-1567,95.5487804878,3,-0.0130434783,-13,-0.0565217391,129,-0.6292682927
4052254,11230.46875,-2064,1.2654812998,-5888,-3.6100551809,-14352,8.7995095034,-257,-27.9268292683,458,15.6707317073,-1567,95.5487804878,2,-0.0086956522,-7,-0.0304347826,128,-0.6243902439
4052894,11250,-1392,0.8534641324,-6032,-3.6983445739,-14256,8.740649908,22,-29.8780487805,490,-1.3414634146,-1566,95.487804878,-2,0.0086956522,-1,-0.0043478261,128,-0.6243902439
4053534,11269.53125,-2256,1.3832004905,-6336,-3.8847332925,-14224,8.7210300429,245,-32.743902439,537,-14.9390243902,-1619,98.7195121951,-3,0.0130434783,-4,-0.0173913043,129,-0.6292682927
4054174,11289.0625,-2672,1.638258737,-6928,-4.2477007971,-13600,8.3384426732,245,-32.743902439,537,-14.9390243902,-1619,98.7195121951,-4,0.0173913043,0,0,126,-0.6146341463
4054814,11308.59375,-1968,1.2066217045,-7600,-4.6597179644,-12576,7.7106069896,92,-34.0853658537,559,-5.6097560976,-1677,102.256097561,-3,0.0130434783,3,0.0130434783,125,-0.6097560976
4055454,11328.125,-1456,0.8927038627,-7904,-4.846106683,-12528,7.6811771919,92,-34.0853658537,559,-5.6097560976,-1677,102.256097561,-5,0.0217391304,5,0.0217391304,123,-0.6
4056094,11347.65625,-2176,1.3341508277,-7824,-4.7970570202,-12496,7.6615573268,199,-39.8170731707,653,-12.1341463415,-1697,103.4756097561,-7,0.0304347826,10,0.0434782609,124,-0.6048780488
4056734,11367.1875,-2640,1.6186388719,-7968,-4.8853464132,-12096,7.4163090129,-146,-44.0853658537,723,8.9024390244,-1793,109.3292682927,-12,0.052173913,17,0.0739130435,121,-0.5902439024
4057374,11386.71875,-1696,1.039852851,-8576,-5.2581238504,-12176,7.4653586757,-146,-44.0853658537,723,8.9024390244,-1793,109.3292682927,-14,0.0608695652,25,0.1086956522,119,-0.5804878049
4058014,11406.25,-1024,0.6278356836,-9104,-5.5818516248,-12176,7.4653586757,-55,-51.3414634146,842,3.3536585366,-1804,110,-17,0.0739130435,23,0.1,119,-0.5804878049
4058654,11425.78125,-1840,1.128142244,-9552,-5.8565297364,-12656,7.7596566524,-55,-51.3414634146,842,3.3536585366,-1804,110,-18,0.0782608696,26,0.1130434783,118,-0.5756097561
4059294,11445.3125,-1440,0.8828939301,-10384,-6.3666462293,-12288,7.5340282036,33,-54.756097561,898,-2.012195122,-1803,109.9390243902,-20,0.0869565217,29,0.1260869565,116,-0.5658536585
4059934,11464.84375,-768,0.4708767627,-11216,-6.8767627223,-12400,7.6026977315,338,-58.9634146341,967,-20.6097560976,-1852,112.9268292683,-24,0.1043478261,35,0.152173913,113,-0.5512195122
4060574,11484.375,-1024,0.6278356836,-11696,-7.171060699,-13152,8.0637645616,338,-58.9634146341,967,-20.6097560976,-1852,112.9268292683,-28,0.1217391304,37,0.1608695652,110,-0.5365853659
4061214,11503.90625,-1824,1.1183323115,-12288,-7.5340282036,-13104,8.0343347639,681,-58.1097560976,953,-41.5243902439,-1861,113.4756097561,-27,0.1173913043,38,0.1652173913,110,-0.5365853659
4061854,11523.4375,-2272,1.3930104231,-13024,-7.9852851012,-12416,7.612507664,681,-58.1097560976,953,-41.5243902439,-1861,113.4756097561,-29,0.1260869565,40,0.1739130435,106,-0.5170731707
4062494,11542.96875,-2160,1.3243408952,-13760,-8.4365419988,-11728,7.1906805641,711,-52.3780487805,859,-43.3536585366,-1973,120.3048780488,-33,0.1434782609,43,0.1869565217,106,-0.5170731707
4063134,11562.5,-1760,1.0790925812,-14496,-8.8877988964,-11104,6.8080931944,1006,-50.0609756098,821,-61.3414634146,-2128,129.756097561,-37,0.1608695652,43,0.1869565217,104,-0.5073170732
4063774,11582.03125,-2112,1.2949110975,-15072,-9.2409564684,-11264,6.9061925199,1006,-50.0609756098,821,-61.3414634146,-2128,129.756097561,-39,0.1695652174,47,0.2043478261,99,-0.4829268293
4064414,11601.5625,-3728,2.2857142857,-15152,-9.2900061312,-11744,7.2004904966,1443,-49.756097561,816,-87.987804878,-2190,133.5365853659,-41,0.1782608696,48,0.2086956522,95,-0.4634146341
4065054,11621.09375,-5248,3.2176578786,-15184,-9.3096259963,-12144,7.4457388105,1461,-43.2317073171,709,-89.0853658537,-2156,131.4634146341,-46,0.2,50,0.2173913043,94,-0.4585365854
4065694,11640.625,-6496,3.982832618,-15392,-9.4371551196,-12704,7.78908645,1461,-43.2317073171,709,-89.0853658537,-2156,131.4634146341,-50,0.2173913043,50,0.2173913043,91,-0.443902439
4066334,11660.15625,-7440,4.5616186389,-15328,-9.3979153893,-13408,8.2207234825,1402,-36.5853658537,600,-85.487804878,-2007,122.3780487805,-51,0.2217391304,55,0.2391304348,88,-0.4292682927
4066974,11679.6875,-8000,4.9049662784,-14976,-9.1820968731,-13968,8.564071122,1402,-36.5853658537,600,-85.487804878,-2007,122.3780487805,-56,0.2434782609,57,0.247826087,86,-0.4195121951
4067614,11699.21875,-8960,5.4935622318,-14816,-9.0839975475,-14480,8.8779889638,1400,-25.9146341463,425,-85.3658536585,-1753,106.8902439024,-57,0.247826087,58,0.252173913,86,-0.4195121951
4068254,11718.75,-10144,6.219497241,-14624,-8.9662783568,-14560,8.9270386266,1173,-15.1219512195,248,-71.5243902439,-1421,86.6463414634,-62,0.2695652174,58,0.252173913,85,-0.4146341463
4068894,11738.28125,-11280,6.9160024525,-14144,-8.6719803801,-14384,8.8191293685,1173,-15.1219512195,248,-71.5243902439,-1421,86.6463414634,-62,0.2695652174,55,0.2391304348,84,-0.4097560976
4069534,11757.8125,-11712,7.1808706315,-13312,-8.1618638872,-14208,8.7112201104,627,-6.9512195122,114,-38.2317073171,-1020,62.1951219512,-65,0.2826086957,54,0.2347826087,82,-0.4
4070174,11777.34375,-11072,6.7884733292,-12720,-7.7988963826,-14032,8.6033108522,627,-6.9512195122,114,-38.2317073171,-1020,62.1951219512,-67,0.2913043478,58,0.252173913,81,-0.3951219512
4070814,11796.875,-10416,6.3862660944,-12480,-7.6517473942,-13600,8.3384426732,201,-1.5243902439,25,-12.256097561,-538,32.8048780488,-71,0.3086956522,59,0.2565217391,80,-0.3902439024
4071454,11816.40625,-9760,5.9840588596,-12096,-7.4163090129,-13184,8.0833844267,-259,-3.9024390244,64,15.7926829268,-102,6.2195121951,-68,0.2956521739,57,0.247826087,80,-0.3902439024
4072094,11835.9375,-8496,5.2090741876,-12448,-7.6321275291,-13344,8.1814837523,-259,-3.9024390244,64,15.7926829268,-102,6.2195121951,-67,0.2913043478,55,0.2391304348,82,-0.4
4072734,11855.46875,-6128,3.7572041692,-12656,-7.7596566524,-13088,8.0245248314,-551,-1.2195121951,20,33.5975609756,370,-22.5609756098,-68,0.2956521739,59,0.2565217391,81,-0.3951219512
4073374,11875,-4464,2.7369711833,-12912,-7.9166155733,-12736,7.8087063151,-108,2.0731707317,-34,6.5853658537,804,-49.0243902439,-69,0.3,61,0.2652173913,79,-0.3853658537
4074014,11894.53125,-4944,3.03126916,-13152,-8.0637645616,-12528,7.6811771919,-108,2.0731707317,-34,6.5853658537,804,-49.0243902439,-65,0.2826086957,57,0.247826087,81,-0.3951219512
4074654,11914.0625,-5504,3.3746167995,-13504,-8.2795830779,-12480,7.6517473942,-131,3.9634146341,-65,7.987804878,1048,-63.9024390244,-62,0.2695652174,56,0.2434782609,82,-0.4
4075294,11933.59375,-5456,3.3451870018,-13744,-8.4267320662,-12320,7.5536480687,-131,3.9634146341,-65,7.987804878,1048,-63.9024390244,-61,0.2652173913,63,0.2739130435,80,-0.3902439024
4075934,11953.125,-5120,3.1391784181,-13808,-8.4659717964,-12384,7.5928877989,-461,8.8414634146,-145,28.1097560976,1224,-74.6341463415,-59,0.2565217391,54,0.2347826087,82,-0.4
4076574,11972.65625,-4832,2.9625996321,-14144,-8.6719803801,-12480,7.6517473942,-528,15.243902439,-250,32.1951219512,1424,-86.8292682927,-57,0.247826087,54,0.2347826087,81,-0.3951219512
4077214,11992.1875,-4896,3.0018393624,-14144,-8.6719803801,-12448,7.6321275291,-528,15.243902439,-250,32.1951219512,1424,-86.8292682927,-54,0.2347826087,54,0.2347826087,82,-0.4
4077854,12011.71875,-4896,3.0018393624,-14064,-8.6229307174,-12640,7.7498467198,-389,19.4512195122,-319,23.7195121951,1489,-90.7926829268,-51,0.2217391304,52,0.2260869565,83,-0.4048780488
4078494,12031.25,-4944,3.03126916,-14368,-8.8093194359,-12912,7.9166155733,-389,19.4512195122,-319,23.7195121951,1489,-90.7926829268,-46,0.2,50,0.2173913043,85,-0.4146341463
4079134,12050.78125,-5808,3.5610055181,-14512,-8.8976088289,-13328,8.1716738197,13,22.6219512195,-371,-0.7926829268,1562,-95.243902439,-45,0.1956521739,52,0.2260869565,86,-0.4195121951
4079774,12070.3125,-6528,4.0024524831,-14816,-9.0839975475,-13632,8.3580625383,119,27.6219512195,-453,-7.256097561,1642,-100.1219512195,-42,0.1826086957,54,0.2347826087,85,-0.4146341463
4080414,12089.84375,-6704,4.1103617413,-14944,-9.162477008,-14192,8.7014101778,119,27.6219512195,-453,-7.256097561,1642,-100.1219512195,-38,0.1652173913,45,0.1956521739,88,-0.4292682927
4081054,12109.375,-7104,4.3556100552,-14608,-8.9564684243,-14656,8.9858982219,315,33.4146341463,-548,-19.2073170732,1714,-104.512195122,-34,0.147826087,44,0.1913043478,89,-0.4341463415
4081694,12128.90625,-7984,4.8951563458,-14352,-8.7995095034,-14352,8.7995095034,315,33.4146341463,-548,-19.2073170732,1714,-104.512195122,-31,0.1347826087,46,0.2,89,-0.4341463415
4082334,12148.4375,-8624,5.2875536481,-14224,-8.7210300429,-13728,8.4169221337,519,36.5243902439,-599,-31.6463414634,1832,-111.7073170732,-27,0.1173913043,43,0.1869565217,87,-0.4243902439
4082974,12167.96875,-8896,5.4543225015,-13936,-8.5444512569,-13504,8.2795830779,363,37.5609756098,-616,-22.1341463415,1966,-119.8780487805,-23,0.1,38,0.1652173913,92,-0.4487804878
4083614,12187.5,-8544,5.2385039853,-13696,-8.3973022685,-13360,8.1912936849,363,37.5609756098,-616,-22.1341463415,1966,-119.8780487805,-19,0.0826086957,36,0.1565217391,91,-0.443902439
4084254,12207.03125,-7936,4.8657265481,-13632,-8.3580625383,-12928,7.9264255058,285,35.7317073171,-586,-17.3780487805,2089,-127.3780487805,-16,0.0695652174,37,0.1608695652,90,-0.4390243902
4084894,12226.5625,-8032,4.9245861435,-13168,-8.0735744942,-12320,7.5536480687,327,31.6463414634,-519,-19.9390243902,2198,-134.0243902439,-13,0.0565217391,33,0.1434782609,92,-0.4487804878
4085534,12246.09375,-8176,5.0128755365,-12608,-7.7302268547,-11696,7.171060699,327,31.6463414634,-519,-19.9390243902,2198,-134.0243902439,-11,0.047826087,27,0.1173913043,93,-0.4536585366
4086174,12265.625,-8128,4.9834457388,-12192,-7.4751686082,-11968,7.3378295524,262,26.0975609756,-428,-15.9756097561,2295,-139.9390243902,-5,0.0217391304,29,0.1260869565,92,-0.4487804878
4086814,12285.15625,-8112,4.9736358063,-11872,-7.2789699571,-12128,7.435928878,262,26.0975609756,-428,-15.9756097561,2295,-139.9390243902,-3,0.0130434783,28,0.1217391304,91,-0.443902439
4087454,12304.6875,-8288,5.0815450644,-11440,-7.0141017781,-11824,7.2495401594,182,23.2926829268,-382,-11.0975609756,2350,-143.2926829268,1,-0.0043478261,20,0.0869565217,93,-0.4536585366
4088094,12324.21875,-8336,5.110974862,-11056,-6.7786633967,-11680,7.1612507664,-28,20.9756097561,-344,1.7073170732,2357,-143.7195121951,4,-0.0173913043,13,0.0565217391,94,-0.4585365854
4088734,12343.75,-8016,4.9147762109,-10752,-6.5922746781,-11872,7.2789699571,-28,20.9756097561,-344,1.7073170732,2357,-143.7195121951,8,-0.0347826087,14,0.0608695652,93,-0.4536585366
4089374,12363.28125,-7168,4.3948497854,-10224,-6.2685469037,-11680,7.1612507664,-226,20.6707317073,-339,13.7804878049,2269,-138.3536585366,12,-0.052173913,3,0.0130434783,95,-0.4634146341
4090014,12382.8125,-6912,4.2378908645,-9552,-5.8565297364,-11904,7.2985898222,-226,20.6707317073,-339,13.7804878049,2269,-138.3536585366,12,-0.052173913,6,0.0260869565,96,-0.4682926829
4090654,12402.34375,-7200,4.4144696505,-8688,-5.3267933783,-12496,7.6615573268,-158,17.987804878,-295,9.6341463415,2206,-134.512195122,14,-0.0608695652,1,0.0043478261,96,-0.4682926829
4091294,12421.875,-7264,4.4537093807,-7792,-4.7774371551,-12240,7.5045984059,-17,16.8292682927,-276,1.0365853659,2207,-134.5731707317,14,-0.0608695652,-7,-0.0304347826,96,-0.4682926829
4091934,12441.40625,-7440,4.5616186389,-6880,-4.2182709994,-11648,7.1416309013,-17,16.8292682927,-276,1.0365853659,2207,-134.5731707317,18,-0.0782608696,-6,-0.0260869565,94,-0.4585365854
4092574,12460.9375,-7504,4.6008583691,-6272,-3.8454935622,-12112,7.4261189454,26,11.4634146341,-188,-1.5853658537,2207,-134.5731707317,18,-0.0782608696,-13,-0.0565217391,97,-0.4731707317
4093214,12480.46875,-7536,4.6204782342,-5872,-3.6002452483,-12432,7.6223175966,-64,10.1829268293,-167,3.9024390244,2181,-132.987804878,23,-0.1,-21,-0.0913043478,96,-0.4682926829
4093854,12500,-6576,4.0318822808,-5344,-3.2765174739,-12000,7.3574494175,-64,10.1829268293,-167,3.9024390244,2181,-132.987804878,24,-0.1043478261,-25,-0.1086956522,95,-0.4634146341
4094494,12519.53125,-6912,4.2378908645,-4384,-2.6879215205,-12304,7.5438381361,76,8.1707317073,-134,-4.6341463415,2165,-132.012195122,27,-0.1173913043,-31,-0.1347826087,97,-0.4731707317
4095134,12539.0625,-7552,4.6302881668,-3952,-2.4230533415,-12800,7.8479460454,76,8.1707317073,-134,-4.6341463415,2165,-132.012195122,26,-0.1130434783,-32,-0.1391304348,96,-0.4682926829
4095774,12558.59375,-7120,4.3654199877,-3536,-2.167995095,-12384,7.5928877989,-29,6.8902439024,-113,1.7682926829,2126,-129.6341463415,27,-0.1173913043,-39,-0.1695652174,97,-0.4731707317
4096414,12578.125,-6768,4.1496014715,-2752,-1.6873083998,-12560,7.700797057,42,5.5487804878,-91,-2.5609756098,2052,-125.1219512195,26,-0.1130434783,-40,-0.1739130435,96,-0.4682926829
4097054,12597.65625,-6880,4.2182709994,-2272,-1.3930104231,-12864,7.8871857756,42,5.5487804878,-91,-2.5609756098,2052,-125.1219512195,26,-0.1130434783,-46,-0.2,96,-0.4682926829
4097694,12617.1875,-6592,4.0416922134,-1840,-1.128142244,-12704,7.78908645,40,4.4512195122,-73,-2.4390243902,1967,-119.9390243902,24,-0.1043478261,-46,-0.2,97,-0.4731707317
4098334,12636.71875,-6304,3.8651134273,-1072,-0.6572654813,-12720,7.7988963826,40,4.4512195122,-73,-2.4390243902,1967,-119.9390243902,24,-0.1043478261,-53,-0.2304347826,96,-0.4682926829
4098974,12656.25,-6528,4.0024524831,-688,-0.4218270999,-13008,7.9754751686,73,3.0487804878,-50,-4.4512195122,1900,-115.8536585366,27,-0.1173913043,-62,-0.2695652174,98,-0.4780487805
4099614,12675.78125,-6720,4.1201716738,-176,-0.1079092581,-13040,7.9950950337,34,4.0243902439,-66,-2.0731707317,1806,-110.1219512195,26,-0.1130434783,-68,-0.2956521739,98,-0.4780487805
4100254,12695.3125,-6192,3.7964438994,464,0.2844880441,-12816,7.8577559779,34,4.0243902439,-66,-2.0731707317,1806,-110.1219512195,27,-0.1173913043,-71,-0.3086956522,97,-0.4731707317
4100894,12714.84375,-6016,3.6885346413,912,0.5591661557,-13088,8.0245248314,131,3.1097560976,-51,-7.987804878,1707,-104.0853658537,23,-0.1,-75,-0.3260869565,98,-0.4780487805
4101534,12734.375,-6768,4.1496014715,1392,0.8534641324,-13344,8.1814837523,131,3.1097560976,-51,-7.987804878,1707,-104.0853658537,24,-0.1043478261,-73,-0.3173913043,98,-0.4780487805
4102174,12753.90625,-6736,4.1299816064,1680,1.0300429185,-13136,8.0539546291,101,5,-82,-6.1585365854,1599,-97.5,22,-0.0956521739,-79,-0.3434782609,98,-0.4780487805
4102814,12773.4375,-6048,3.7081545064,2000,1.2262415696,-13200,8.0931943593,30,7.256097561,-119,-1.8292682927,1505,-91.7682926829,23,-0.1,-82,-0.3565217391,95,-0.4634146341
4103454,12792.96875,-5920,3.629675046,2512,1.5401594114,-13152,8.0637645616,30,7.256097561,-119,-1.8292682927,1505,-91.7682926829,22,-0.0956521739,-90,-0.3913043478,98,-0.4780487805
4104094,12812.5,-6288,3.8553034948,2848,1.7461679951,-12768,7.8283261803,90,7.9268292683,-130,-5.487804878,1424,-86.8292682927,20,-0.0869565217,-89,-0.3869565217,96,-0.4682926829
4104734,12832.03125,-5696,3.4923359902,3360,2.0600858369,-12512,7.6713672594,-44,7.9268292683,-130,2.6829268293,1305,-79.5731707317,19,-0.0826086957,-92,-0.4,96,-0.4682926829
4105374,12851.5625,-4880,2.9920294298,3680,2.256284488,-12512,7.6713672594,-44,7.9268292683,-130,2.6829268293,1305,-79.5731707317,18,-0.0782608696,-96,-0.4173913043,96,-0.4682926829
4106014,12871.09375,-5184,3.1784181484,3856,2.3641937462,-12336,7.5634580012,150,6.5853658537,-108,-9.1463414634,1233,-75.1829268293,16,-0.0695652174,-96,-0.4173913043,95,-0.4634146341
4106654,12890.625,-5392,3.3059472716,4160,2.5505824647,-12000,7.3574494175,150,6.5853658537,-108,-9.1463414634,1233,-75.1829268293,15,-0.0652173913,-98,-0.4260869565,96,-0.4682926829
4107294,12910.15625,-5008,3.0705088903,4640,2.8448804414,-12112,7.4261189454,-27,6.0365853659,-99,1.6463414634,1100,-67.0731707317,15,-0.0652173913,-102,-0.4434782609,96,-0.4682926829
4107934,12929.6875,-4544,2.7860208461,4800,2.942979767,-12016,7.3672593501,-64,4.6341463415,-76,3.9024390244,992,-60.487804878,12,-0.052173913,-105,-0.4565217391,98,-0.4780487805
4108574,12949.21875,-4144,2.5407725322,5120,3.1391784181,-11904,7.2985898222,-64,4.6341463415,-76,3.9024390244,992,-60.487804878,10,-0.0434782609,-105,-0.4565217391,96,-0.4682926829
4109214,12968.75,-3664,2.2464745555,5376,3.2961373391,-11840,7.259350092,-36,2.8048780488,-46,2.1951219512,879,-53.5975609756,11,-0.047826087,-110,-0.4782608696,97,-0.4731707317
4109854,12988.28125,-3488,2.1385652974,5744,3.5217657879,-11888,7.2887798896,-36,2.8048780488,-46,2.1951219512,879,-53.5975609756,7,-0.0304347826,-106,-0.4608695652,96,-0.4682926829
4110494,13007.8125,-3200,1.9619865113,5872,3.6002452483,-11760,7.2103004292,21,0.487804878,-8,-1.2804878049,745,-45.4268292683,7,-0.0304347826,-111,-0.4826086957,97,-0.4731707317
4111134,13027.34375,-2944,1.8050275904,6176,3.7866339669,-11776,7.2201103617,-16,-1.4634146341,24,0.9756097561,572,-34.8780487805,6,-0.0260869565,-111,-0.4826086957,97,-0.4731707317
4111774,13046.875,-2608,1.5990190067,6336,3.8847332925,-11968,7.3378295524,-16,-1.4634146341,24,0.9756097561,572,-34.8780487805,4,-0.0173913043,-113,-0.4913043478,98,-0.4780487805
4112414,13066.40625,-2576,1.5793991416,6400,3.9239730227,-12048,7.3868792152,39,-3.5975609756,59,-2.3780487805,414,-25.243902439,6,-0.0260869565,-117,-0.5086956522,98,-0.4780487805
4113054,13085.9375,-2944,1.8050275904,6496,3.982832618,-12400,7.6026977315,39,-3.5975609756,59,-2.3780487805,414,-25.243902439,4,-0.0173913043,-112,-0.4869565217,98,-0.4780487805
4113694,13105.46875,-2976,1.8246474555,6720,4.1201716738,-12688,7.7792765175,-10,-4.6951219512,77,0.6097560976,244,-14.8780487805,4,-0.0173913043,-114,-0.4956521739,98,-0.4780487805
4114334,13125,-2928,1.7952176579,6848,4.1986511343,-12912,7.9166155733,-124,-3.1707317073,52,7.5609756098,83,-5.0609756098,5,-0.0217391304,-116,-0.5043478261,100,-0.487804878
4114974,13144.53125,-2832,1.7363580625,6720,4.1201716738,-12944,7.9362354384,-124,-3.1707317073,52,7.5609756098,83,-5.0609756098,5,-0.0217391304,-118,-0.5130434783,101,-0.4926829268
4115614,13164.0625,-2832,1.7363580625,6592,4.0416922134,-12832,7.8675659105,-187,-2.1341463415,35,11.4024390244,-60,3.6585365854,5,-0.0217391304,-114,-0.4956521739,98,-0.4780487805
4116254,13183.59375,-2816,1.72654813,6608,4.0515021459,-12880,7.8969957082,-201,-2.1341463415,35,12.256097561,-215,13.1097560976,6,-0.0260869565,-113,-0.4913043478,98,-0.4780487805
4116894,13203.125,-2384,1.461679951,6544,4.0122624157,-12848,7.877375843,-201,-2.1341463415,35,12.256097561,-215,13.1097560976,3,-0.0130434783,-115,-0.5,101,-0.4926829268
4117534,13222.65625,-2304,1.4126302882,6272,3.8454935622,-12688,7.7792765175,-180,-3.4756097561,57,10.9756097561,-361,22.012195122,3,-0.0130434783,-112,-0.4869565217,101,-0.4926829268
4118174,13242.1875,-2208,1.3537706928,5952,3.6492949111,-12608,7.7302268547,-180,-3.4756097561,57,10.9756097561,-361,22.012195122,4,-0.0173913043,-108,-0.4695652174,102,-0.4975609756
4118814,13261.71875,-1824,1.1183323115,5872,3.6002452483,-12384,7.5928877989,-317,-4.512195122,74,19.3292682927,-518,31.5853658537,5,-0.0217391304,-107,-0.4652173913,101,-0.4926829268
4119454,13281.25,-1552,0.951563458,5728,3.5119558553,-12464,7.6419374617,-379,-6.7073170732,110,23.1097560976,-704,42.9268292683,6,-0.0260869565,-112,-0.4869565217,104,-0.5073170732
4120094,13300.78125,-1376,0.8436541999,5456,3.3451870018,-12624,7.7400367872,-379,-6.7073170732,110,23.1097560976,-704,42.9268292683,9,-0.0391304348,-108,-0.4695652174,104,-0.5073170732
4120734,13320.3125,-800,0.4904966278,4944,3.03126916,-12224,7.4947884733,-489,-9.0243902439,148,29.8170731707,-899,54.8170731707,8,-0.0347826087,-109,-0.4739130435,104,-0.5073170732
4121374,13339.84375,-432,0.264868179,4464,2.7369711833,-12304,7.5438381361,-489,-9.0243902439,148,29.8170731707,-899,54.8170731707,9,-0.0391304348,-107,-0.4652173913,106,-0.5170731707
4122014,13359.375,-560,0.3433476395,4336,2.6584917229,-13328,8.1716738197,-457,-13.5975609756,223,27.8658536585,-1079,65.7926829268,8,-0.0347826087,-101,-0.4391304348,107,-0.5219512195
4122654,13378.90625,-512,0.3139178418,4080,2.501532802,-13712,8.4071122011,-605,-12.5,205,36.8902439024,-1316,80.243902439,10,-0.0434782609,-98,-0.4260869565,106,-0.5170731707
4123294,13398.4375,-800,0.4904966278,3456,2.1189454323,-13888,8.5150214592,-605,-12.5,205,36.8902439024,-1316,80.243902439,12,-0.052173913,-98,-0.4260869565,110,-0.5365853659
4123934,13417.96875,-960,0.5885959534,2576,1.5793991416,-14048,8.6131207848,-713,-13.4756097561,221,43.4756097561,-1543,94.0853658537,12,-0.052173913,-94,-0.4086956522,111,-0.5414634146
4124574,13437.5,-1280,0.7847946045,2080,1.2752912324,-14416,8.8387492336,-613,-11.8292682927,194,37.3780487805,-1781,108.5975609756,13,-0.0565217391,-90,-0.3913043478,113,-0.5512195122
4125214,13457.03125,-1184,0.7259350092,1744,1.0692826487,-14560,8.9270386266,-613,-11.8292682927,194,37.3780487805,-1781,108.5975609756,14,-0.0608695652,-90,-0.3913043478,113,-0.5512195122
4125854,13476.5625,-1872,1.1477621091,1344,0.8240343348,-15264,9.3586756591,-265,-10.7926829268,177,16.1585365854,-1950,118.9024390244,16,-0.0695652174,-85,-0.3695652174,115,-0.5609756098
4126494,13496.09375,-2816,1.72654813,352,0.2158185162,-15616,9.5744941754,-265,-10.7926829268,177,16.1585365854,-1950,118.9024390244,15,-0.0652173913,-77,-0.3347826087,113,-0.5512195122
4127134,13515.625,-4128,2.5309625996,-368,-0.2256284488,-15424,9.4567749847,-183,-8.4146341463,138,11.1585365854,-2031,123.8414634146,19,-0.0826086957,-73,-0.3173913043,115,-0.5609756098
4127774,13535.15625,-5024,3.0803188228,-688,-0.4218270999,-15296,9.3782955242,-570,-8.4756097561,139,34.756097561,-2127,129.6951219512,19,-0.0826086957,-71,-0.3086956522,116,-0.5658536585
4128414,13554.6875,-4352,2.6683016554,-848,-0.5199264255,-15888,9.7412630288,-570,-8.4756097561,139,34.756097561,-2127,129.6951219512,17,-0.0739130435,-66,-0.2869565217,117,-0.5707317073
4129054,13574.21875,-3600,2.2072348253,-1344,-0.8240343348,-15904,9.7510729614,-259,-8.1707317073,134,15.7926829268,-2116,129.0243902439,19,-0.0826086957,-61,-0.2652173913,117,-0.5707317073
4129694,13593.75,-4736,2.9037400368,-2304,-1.4126302882,-14720,9.0251379522,-259,-8.1707317073,134,15.7926829268,-2116,129.0243902439,18,-0.0782608696,-51,-0.2217391304,116,-0.5658536585
4130334,13613.28125,-5744,3.5217657879,-2704,-1.6578786021,-13664,8.3776824034,-343,-10.6097560976,174,20.9146341463,-2147,130.9146341463,17,-0.0739130435,-54,-0.2347826087,116,-0.5658536585
4130974,13632.8125,-4832,2.9625996321,-2800,-1.7167381974,-13952,8.5542611895,-448,-15.0609756098,247,27.3170731707,-2152,131.2195121951,17,-0.0739130435,-44,-0.1913043478,119,-0.5804878049
4131614,13652.34375,-4672,2.8645003066,-2784,-1.7069282649,-14640,8.9760882894,-448,-15.0609756098,247,27.3170731707,-2152,131.2195121951,15,-0.0652173913,-40,-0.1739130435,118,-0.5756097561
4132254,13671.875,-4576,2.8056407112,-3520,-2.1581851625,-13696,8.3973022685,-217,-16.5243902439,271,13.2317073171,-2170,132.3170731707,16,-0.0695652174,-38,-0.1652173913,119,-0.5804878049
4132894,13691.40625,-4096,2.5113427345,-4784,-2.9331698345,-12656,7.7596566524,-217,-16.5243902439,271,13.2317073171,-2170,132.3170731707,16,-0.0695652174,-31,-0.1347826087,119,-0.5804878049
4133534,13710.9375,-5184,3.1784181484,-4944,-3.03126916,-13696,8.3973022685,-1,-23.9024390244,392,0.0609756098,-2233,136.1585365854,14,-0.0608695652,-26,-0.1130434783,119,-0.5804878049
4134174,13730.46875,-6704,4.1103617413,-4752,-2.9135499693,-14448,8.8583690987,-69,-22.6219512195,371,4.2073170732,-2230,135.9756097561,13,-0.0565217391,-19,-0.0826086957,117,-0.5707317073
4134814,13750,-6432,3.9435928878,-5520,-3.3844267321,-13904,8.5248313918,-69,-22.6219512195,371,4.2073170732,-2230,135.9756097561,14,-0.0608695652,-22,-0.0956521739,120,-0.5853658537
4135454,13769.53125,-5968,3.6591048437,-6208,-3.806253832,-14224,8.7210300429,-146,-24.9390243902,409,8.9024390244,-2285,139.3292682927,12,-0.052173913,-16,-0.0695652174,116,-0.5658536585
4136094,13789.0625,-6720,4.1201716738,-6368,-3.9043531576,-14800,9.074187615,15,-24.9390243902,409,-0.9146341463,-2214,135,8,-0.0347826087,-6,-0.0260869565,116,-0.5658536585
4136734,13808.59375,-7808,4.7872470877,-6832,-4.1888412017,-15056,9.2311465359,15,-24.9390243902,409,-0.9146341463,-2214,135,7,-0.0304347826,-3,-0.0130434783,115,-0.5609756098
4137374,13828.125,-8064,4.9442060086,-7344,-4.5027590435,-15792,9.6824034335,34,-23.4146341463,384,-2.0731707317,-2163,131.8902439024,3,-0.0130434783,1,0.0043478261,115,-0.5609756098
4138014,13847.65625,-7648,4.6891477621,-8160,-5.0030656039,-15760,9.6627835684,34,-23.4146341463,384,-2.0731707317,-2163,131.8902439024,2,-0.0086956522,5,0.0217391304,114,-0.556097561
4138654,13867.1875,-8416,5.1600245248,-8704,-5.3366033109,-15728,9.6431637032,195,-22.3780487805,367,-11.8902439024,-2059,125.5487804878,-1,0.0043478261,13,0.0565217391,114,-0.556097561
4139294,13886.71875,-8816,5.4052728387,-8704,-5.3366033109,-15920,9.7608828939,-157,-18.7804878049,308,9.5731707317,-1953,119.0853658537,-2,0.0086956522,11,0.047826087,112,-0.5463414634
4139934,13906.25,-7136,4.3752299203,-8976,-5.5033721643,-15296,9.3782955242,-157,-18.7804878049,308,9.5731707317,-1953,119.0853658537,-4,0.0173913043,13,0.0565217391,114,-0.556097561
4140574,13925.78125,-5296,3.2470876763,-9296,-5.6995708155,-14224,8.7210300429,-124,-17.9268292683,294,7.5609756098,-1855,113.1097560976,-5,0.0217391304,12,0.052173913,114,-0.556097561
4141214,13945.3125,-4640,2.8448804414,-9488,-5.8172900061,-13808,8.4659717964,-124,-17.9268292683,294,7.5609756098,-1855,113.1097560976,-9,0.0391304348,18,0.0782608696,113,-0.5512195122
4141854,13964.84375,-4736,2.9037400368,-9152,-5.6112814224,-13872,8.5052115267,105,-20.243902439,332,-6.4024390244,-1818,110.8536585366,-11,0.047826087,24,0.1043478261,112,-0.5463414634
4142494,13984.375,-3520,2.1581851625,-9776,-5.9938687922,-13120,8.0441446965,302,-21.1585365854,347,-18.4146341463,-1838,112.0731707317,-14,0.0608695652,27,0.1173913043,111,-0.5414634146
4143134,14003.90625,-2848,1.7461679951,-10640,-6.5236051502,-12656,7.7596566524,302,-21.1585365854,347,-18.4146341463,-1838,112.0731707317,-14,0.0608695652,26,0.1130434783,111,-0.5414634146
4143774,14023.4375,-3120,1.9129368486,-10896,-6.6805640711,-12544,7.6909871245,564,-20.8536585366,342,-34.3902439024,-1929,117.6219512195,-20,0.0869565217,35,0.152173913,105,-0.512195122
4144414,14042.96875,-3712,2.2759043532,-10960,-6.7198038013,-12448,7.6321275291,564,-20.8536585366,342,-34.3902439024,-1929,117.6219512195,-22,0.0956521739,33,0.1434782609,106,-0.5170731707
4145054,14062.5,-3904,2.3936235438,-11440,-7.0141017781,-12592,7.7204169221,600,-19.2682926829,316,-36.5853658537,-2037,124.2073170732,-23,0.1,35,0.152173913,103,-0.5024390244
4145694,14082.03125,-4240,2.5996321275,-11536,-7.0729613734,-12864,7.8871857756,600,-17.987804878,295,-36.5853658537,-2137,130.3048780488,-27,0.1173913043,41,0.1782608696,103,-0.5024390244
4146334,14101.5625,-3984,2.4426732066,-11968,-7.3378295524,-12624,7.7400367872,600,-17.987804878,295,-36.5853658537,-2137,130.3048780488,-31,0.1347826087,44,0.1913043478,99,-0.4829268293
4146974,14121.09375,-4752,2.9135499693,-12560,-7.700797057,-12848,7.877375843,642,-15.7926829268,259,-39.1463414634,-2187,133.3536585366,-31,0.1347826087,44,0.1913043478,100,-0.487804878
4147614,14140.625,-5888,3.6100551809,-12480,-7.6517473942,-13328,8.1716738197,447,-11.7073170732,192,-27.256097561,-2232,136.0975609756,-39,0.1695652174,50,0.2173913043,99,-0.4829268293
4148254,14160.15625,-6480,3.9730226855,-12704,-7.78908645,-14240,8.7308399755,447,-11.7073170732,192,-27.256097561,-2232,136.0975609756,-42,0.1826086957,48,0.2086956522,99,-0.4829268293
4148894,14179.6875,-7232,4.4340895156,-12592,-7.7204169221,-15472,9.4862047823,279,-7.8048780488,128,-17.012195122,-2175,132.6219512195,-46,0.2,49,0.2130434783,96,-0.4682926829
4149534,14199.21875,-8384,5.1404046597,-12256,-7.5144083384,-16880,10.3494788473,279,-7.8048780488,128,-17.012195122,-2175,132.6219512195,-47,0.2043478261,53,0.2304347826,96,-0.4682926829
4150174,14218.75,-8656,5.3071735132,-12096,-7.4163090129,-17360,10.643776824,27,-2.6219512195,43,-1.6463414634,-2037,124.2073170732,-54,0.2347826087,56,0.2434782609,96,-0.4682926829
4150814,14238.28125,-8416,5.1600245248,-12048,-7.3868792152,-16880,10.3494788473,97,1.7682926829,-29,-5.9146341463,-1726,105.243902439,-55,0.2391304348,52,0.2260869565,97,-0.4731707317
4151454,14257.8125,-8896,5.4543225015,-11536,-7.0729613734,-15712,9.6333537707,97,1.7682926829,-29,-5.9146341463,-1726,105.243902439,-60,0.2608695652,56,0.2434782609,95,-0.4634146341
4152094,14277.34375,-8672,5.3169834457,-11296,-6.925812385,-14576,8.9368485592,290,-0.1219512195,2,-17.6829268293,-1319,80.4268292683,-62,0.2695652174,62,0.2695652174,94,-0.4585365854
4152734,14296.875,-7824,4.7970570202,-11296,-6.925812385,-13728,8.4169221337,290,-0.1219512195,2,-17.6829268293,-1319,80.4268292683,-66,0.2869565217,59,0.2565217391,94,-0.4585365854
4153374,14316.40625,-6272,3.8454935622,-11088,-6.7982832618,-13168,8.0735744942,377,-2.1341463415,35,-22.987804878,-972,59.2682926829,-64,0.2782608696,56,0.2434782609,94,-0.4585365854
4154014,14335.9375,-5616,3.4432863274,-10912,-6.6903740037,-13040,7.9950950337,539,-3.6585365854,60,-32.8658536585,-617,37.6219512195,-67,0.2913043478,58,0.252173913,93,-0.4536585366
4154654,14355.46875,-5360,3.2863274065,-10576,-6.48436542,-12400,7.6026977315,539,-3.6585365854,60,-32.8658536585,-617,37.6219512195,-66,0.2869565217,53,0.2304347826,96,-0.4682926829
4155294,14375,-5088,3.119558553,-9920,-6.0821581852,-11568,7.0925812385,359,-1.6463414634,27,-21.8902439024,-321,19.5731707317,-66,0.2869565217,55,0.2391304348,94,-0.4585365854
4155934,14394.53125,-4704,2.8841201717,-9728,-5.9644389945,-11408,6.9944819129,138,-1.8292682927,30,-8.4146341463,-140,8.5365853659,-65,0.2826086957,57,0.247826087,93,-0.4536585366
4156574,14414.0625,-4304,2.6388718578,-9776,-5.9938687922,-11776,7.2201103617,138,-1.8292682927,30,-8.4146341463,-140,8.5365853659,-67,0.2913043478,56,0.2434782609,94,-0.4585365854
4157214,14433.59375,-3648,2.2366646229,-9776,-5.9938687922,-12080,7.4064990803,-50,-0.0609756098,1,3.0487804878,-21,1.2804878049,-68,0.2956521739,55,0.2391304348,94,-0.4585365854
4157854,14453.125,-3920,2.4034334764,-10080,-6.1802575107,-12448,7.6321275291,-50,-0.0609756098,1,3.0487804878,-21,1.2804878049,-68,0.2956521739,61,0.2652173913,92,-0.4487804878
4158494,14472.65625,-4480,2.7467811159,-9888,-6.06253832,-12688,7.7792765175,-63,1.2195121951,-20,3.8414634146,134,-8.1707317073,-68,0.2956521739,60,0.2608695652,92,-0.4487804878
4159134,14492.1875,-5024,3.0803188228,-9952,-6.1017780503,-13088,8.0245248314,-82,-1.5853658537,26,5,365,-22.256097561,-67,0.2913043478,55,0.2391304348,92,-0.4487804878
4159774,14511.71875,-5728,3.5119558553,-10400,-6.3764561619,-13520,8.2893930104,-82,-1.5853658537,26,5,365,-22.256097561,-65,0.2826086957,56,0.2434782609,93,-0.4536585366
4160414,14531.25,-6352,3.894543225,-10912,-6.6903740037,-14176,8.6916002452,18,-2.4390243902,40,-1.0975609756,627,-38.2317073171,-64,0.2782608696,53,0.2304347826,92,-0.4487804878
4161054,14550.78125,-7264,4.4537093807,-11488,-7.0435315757,-14496,8.8877988964,18,-2.4390243902,40,-1.0975609756,627,-38.2317073171,-62,0.2695652174,53,0.2304347826,93,-0.4536585366
4161694,14570.3125,-8400,5.1502145923,-11872,-7.2789699571,-14656,8.9858982219,60,-1.4634146341,24,-3.6585365854,878,-53.5365853659,-63,0.2739130435,56,0.2434782609,93,-0.4536585366
4162334,14589.84375,-8992,5.5131820969,-12192,-7.4751686082,-14592,8.9466584917,10,0.487804878,-8,-0.6097560976,1137,-69.3292682927,-60,0.2608695652,55,0.2391304348,93,-0.4536585366
4162974,14609.375,-8848,5.4248927039,-12576,-7.7106069896,-14512,8.8976088289,10,0.487804878,-8,-0.6097560976,1137,-69.3292682927,-57,0.247826087,56,0.2434782609,93,-0.4536585366
4163614,14628.90625,-8848,5.4248927039,-13024,-7.9852851012,-14592,8.9466584917,166,2.8048780488,-46,-10.1219512195,1416,-86.3414634146,-53,0.2304347826,57,0.247826087,93,-0.4536585366
4164254,14648.4375,-9296,5.6995708155,-13328,-8.1716738197,-14432,8.8485591662,166,2.8048780488,-46,-10.1219512195,1416,-86.3414634146,-54,0.2347826087,55,0.2391304348,92,-0.4487804878
4164894,14667.96875,-9680,5.9350091968,-13584,-8.3286327406,-13824,8.475781729,150,5,-82,-9.1463414634,1669,-101.7682926829,-48,0.2086956522,55,0.2391304348,92,-0.4487804878
4165534,14687.5,-9264,5.6799509503,-13984,-8.5738810546,-13136,8.0539546291,-40,7.1341463415,-117,2.4390243902,1903,-116.0365853659,-47,0.2043478261,49,0.2130434783,93,-0.4536585366
4166174,14707.03125,-7856,4.8166768853,-14032,-8.6033108522,-12368,7.5830778663,-40,7.1341463415,-117,2.4390243902,1903,-116.0365853659,-42,0.1826086957,45,0.1956521739,95,-0.4634146341
4166814,14726.5625,-6544,4.0122624157,-13696,-8.3973022685,-12016,7.3672593501,247,4.8170731707,-79,-15.0609756098,1973,-120.3048780488,-39,0.1695652174,47,0.2043478261,94,-0.4585365854
4167454,14746.09375,-7376,4.5223789086,-13936,-8.5444512569,-12496,7.6615573268,797,-6.2804878049,103,-48.5975609756,2110,-128.6585365854,-31,0.1347826087,43,0.1869565217,93,-0.4536585366
4168094,14765.625,-9104,5.5818516248,-14416,-8.8387492336,-11872,7.2789699571,797,-6.2804878049,103,-48.5975609756,2110,-128.6585365854,-32,0.1391304348,40,0.1739130435,93,-0.4536585366
4168734,14785.15625,-9648,5.9153893317,-13952,-8.5542611895,-11088,6.7982832618,433,-8.7195121951,143,-26.4024390244,2133,-130.0609756098,-25,0.1086956522,43,0.1869565217,92,-0.4487804878
4169374,14804.6875,-9504,5.8270999387,-13392,-8.21091355,-11488,7.0435315757,433,-8.7195121951,143,-26.4024390244,2133,-130.0609756098,-23,0.1,44,0.1913043478,89,-0.4341463415
4170014,14824.21875,-9072,5.5622317597,-13328,-8.1716738197,-11872,7.2789699571,292,-13.3536585366,219,-17.8048780488,2290,-139.6341463415,-16,0.0695652174,39,0.1695652174,88,-0.4292682927
4170654,14843.75,-8704,5.3366033109,-13488,-8.2697731453,-12256,7.5144083384,332,-17.8658536585,293,-20.243902439,2372,-144.6341463415,-15,0.0652173913,36,0.1565217391,90,-0.4390243902
4171294,14863.28125,-8768,5.3758430411,-13408,-8.2207234825,-12256,7.5144083384,332,-17.8658536585,293,-20.243902439,2372,-144.6341463415,-9,0.0391304348,34,0.147826087,88,-0.4292682927
4171934,14882.8125,-9216,5.6505211527,-13024,-7.9852851012,-12128,7.435928878,356,-22.987804878,377,-21.7073170732,2496,-152.1951219512,-6,0.0260869565,25,0.1086956522,90,-0.4390243902
4172574,14902.34375,-9728,5.9644389945,-12816,-7.8577559779,-12240,7.5045984059,356,-22.987804878,377,-21.7073170732,2496,-152.1951219512,0,0,21,0.0913043478,88,-0.4292682927
4173214,14921.875,-9824,6.0232985898,-12432,-7.6223175966,-12144,7.4457388105,302,-26.8292682927,440,-18.4146341463,2633,-160.5487804878,3,-0.0130434783,22,0.0956521739,86,-0.4195121951
4173854,14941.40625,-9424,5.7780502759,-12160,-7.4555487431,-12768,7.8283261803,98,-29.6951219512,487,-5.9756097561,2688,-163.9024390244,6,-0.0260869565,18,0.0782608696,85,-0.4146341463
4174494,14960.9375,-8992,5.5131820969,-11936,-7.3182096873,-13056,8.0049049663,98,-29.6951219512,487,-5.9756097561,2688,-163.9024390244,11,-0.047826087,10,0.0434782609,87,-0.4243902439
4175134,14980.46875,-8912,5.4641324341,-11408,-6.9944819129,-12704,7.78908645,84,-27.987804878,459,-5.1219512195,2782,-169.6341463415,13,-0.0565217391,7,0.0304347826,84,-0.4097560976
4175774,15000,-9072,5.5622317597,-10800,-6.6217044758,-12912,7.9166155733,84,-27.987804878,459,-5.1219512195,2782,-169.6341463415,16,-0.0695652174,7,0.0304347826,84,-0.4097560976
4176414,15019.53125,-9072,5.5622317597,-10496,-6.4353157572,-13456,8.2501532802,105,-28.9634146341,475,-6.4024390244,2796,-170.487804878,17,-0.0739130435,-3,-0.0130434783,82,-0.4
4177054,15039.0625,-9328,5.7191906806,-10112,-6.1998773758,-14000,8.5836909871,130,-26.7073170732,438,-7.9268292683,2799,-170.6707317073,21,-0.0913043478,-7,-0.0304347826,82,-0.4
4177694,15058.59375,-8928,5.4739423666,-9408,-5.7682403433,-13552,8.3090128755,130,-26.7073170732,438,-7.9268292683,2799,-170.6707317073,24,-0.1043478261,-16,-0.0695652174,82,-0.4
4178334,15078.125,-8304,5.0913549969,-8592,-5.267933783,-13472,8.2599632128,18,-22.5,369,-1.0975609756,2743,-167.256097561,25,-0.1086956522,-17,-0.0739130435,83,-0.4048780488
4178974,15097.65625,-8464,5.1894543225,-7968,-4.8853464132,-13936,8.5444512569,274,-20.3658536585,334,-16.7073170732,2713,-165.4268292683,27,-0.1173913043,-26,-0.1130434783,81,-0.3951219512
4179614,15117.1875,-9008,5.5229920294,-7408,-4.5419987738,-13712,8.4071122011,274,-20.3658536585,334,-16.7073170732,2713,-165.4268292683,28,-0.1217391304,-30,-0.1304347826,83,-0.4048780488
4180254,15136.71875,-9184,5.6309012876,-6256,-3.8356836297,-13312,8.1618638872,160,-15.7926829268,259,-9.756097561,2607,-158.9634146341,29,-0.1260869565,-38,-0.1652173913,82,-0.4
4180894,15156.25,-8624,5.2875536481,-5424,-3.3255671367,-13712,8.4071122011,160,-15.7926829268,259,-9.756097561,2607,-158.9634146341,31,-0.1347826087,-47,-0.2043478261,84,-0.4097560976
4181534,15175.78125,-8096,4.9638258737,-5024,-3.0803188228,-13648,8.3678724709,164,-13.1707317073,216,-10,2531,-154.3292682927,30,-0.1304347826,-46,-0.2,79,-0.3853658537
4182174,15195.3125,-9040,5.5426118945,-4048,-2.4819129368,-13328,8.1716738197,330,-9.0243902439,148,-20.1219512195,2463,-150.1829268293,30,-0.1304347826,-56,-0.2434782609,82,-0.4
4182814,15214.84375,-9632,5.9055793991,-3184,-1.9521765788,-12992,7.9656652361,330,-9.0243902439,148,-20.1219512195,2463,-150.1829268293,29,-0.1260869565,-60,-0.2608695652,80,-0.3902439024
4183454,15234.375,-8880,5.444512569,-2928,-1.7952176579,-12832,7.8675659105,57,-7.5609756098,124,-3.4756097561,2401,-146.4024390244,29,-0.1260869565,-63,-0.2739130435,82,-0.4
4184094,15253.90625,-8400,5.1502145923,-2320,-1.4224402207,-12816,7.8577559779,57,-7.5609756098,124,-3.4756097561,2401,-146.4024390244,29,-0.1260869565,-71,-0.3086956522,79,-0.3853658537
4184734,15273.4375,-9248,5.6701410178,-1392,-0.8534641324,-12592,7.7204169221,188,-5.487804878,90,-11.4634146341,2364,-144.1463414634,29,-0.1260869565,-76,-0.3304347826,80,-0.3902439024
4185374,15292.96875,-9040,5.5426118945,-816,-0.5003065604,-12256,7.5144083384,-124,-3.2317073171,53,7.5609756098,2301,-140.3048780488,26,-0.1130434783,-83,-0.3608695652,80,-0.3902439024
4186014,15312.5,-7920,4.8559166156,-368,-0.2256284488,-12048,7.3868792152,-124,-3.2317073171,53,7.5609756098,2301,-140.3048780488,23,-0.1,-87,-0.3782608696,79,-0.3853658537
4186654,15332.03125,-7744,4.7480073574,464,0.2844880441,-11888,7.2887798896,-173,-0.9146341463,15,10.5487804878,2253,-137.3780487805,21,-0.0913043478,-97,-0.4217391304,83,-0.4048780488
4187294,15351.5625,-8144,4.9932556714,1376,0.8436541999,-11856,7.2691600245,-172,1.2195121951,-20,10.487804878,2162,-131.8292682927,21,-0.0913043478,-99,-0.4304347826,81,-0.3951219512
4187934,15371.09375,-7504,4.6008583691,1536,0.9417535254,-11632,7.1318209687,-172,1.2195121951,-20,10.487804878,2162,-131.8292682927,17,-0.0739130435,-107,-0.4652173913,83,-0.4048780488
4188574,15390.625,-6736,4.1299816064,2096,1.2851011649,-11792,7.2299202943,-133,3.5365853659,-58,8.1097560976,2038,-124.2682926829,15,-0.0652173913,-106,-0.4608695652,83,-0.4048780488
4189214,15410.15625,-7664,4.6989576947,2880,1.7657878602,-11856,7.2691600245,-133,3.5365853659,-58,8.1097560976,2038,-124.2682926829,11,-0.047826087,-109,-0.4739130435,83,-0.4048780488
4189854,15429.6875,-8064,4.9442060086,3696,2.2660944206,-11840,7.259350092,-43,8.2926829268,-136,2.6219512195,1919,-117.012195122,8,-0.0347826087,-116,-0.5043478261,83,-0.4048780488
4190494,15449.21875,-7152,4.3850398529,4288,2.6290619252,-12368,7.5830778663,65,12.4390243902,-204,-3.9634146341,1738,-105.9756097561,6,-0.0260869565,-121,-0.5260869565,83,-0.4048780488
4191134,15468.75,-6976,4.2771305947,4256,2.6094420601,-11984,7.347639485,65,12.4390243902,-204,-3.9634146341,1738,-105.9756097561,4,-0.0173913043,-119,-0.5173913043,81,-0.3951219512
4191774,15488.28125,-7504,4.6008583691,4352,2.6683016554,-11056,6.7786633967,449,14.512195122,-238,-27.3780487805,1730,-105.487804878,2,-0.0086956522,-124,-0.5391304348,80,-0.3902439024
4192414,15507.8125,-7840,4.8068669528,5088,3.119558553,-11168,6.8473329246,449,14.512195122,-238,-27.3780487805,1730,-105.487804878,-1,0.0043478261,-129,-0.5608695652,82,-0.4
4193054,15527.34375,-6512,3.9926425506,5408,3.3157572042,-11040,6.7688534641,354,11.0975609756,-182,-21.5853658537,1729,-105.4268292683,-5,0.0217391304,-128,-0.5565217391,79,-0.3853658537
4193694,15546.875,-5696,3.4923359902,5872,3.6002452483,-10480,6.4255058246,339,5.1829268293,-85,-20.6707317073,1770,-107.9268292683,-8,0.0347826087,-133,-0.5782608696,78,-0.3804878049
4194334,15566.40625,-5056,3.0999386879,6544,4.0122624157,-9440,5.7878602085,339,5.1829268293,-85,-20.6707317073,1770,-107.9268292683,-10,0.0434782609,-137,-0.5956521739,80,-0.3902439024
4194974,15585.9375,-3824,2.3445738811,7008,4.2967504598,-9312,5.709380748,37,-3.1097560976,51,-2.256097561,1685,-102.743902439,-16,0.0695652174,-141,-0.6130434783,80,-0.3902439024
4195614,15605.46875,-1424,0.8730839975,7216,4.4242795831,-9360,5.7388105457,37,-3.1097560976,51,-2.256097561,1685,-102.743902439,-17,0.0739130435,-139,-0.6043478261,78,-0.3804878049
4196254,15625,288,-0.176578786,7840,4.8068669528,-9184,5.6309012876,74,-7.256097561,119,-4.512195122,1476,-90,-22,0.0956521739,-142,-0.6173913043,81,-0.3951219512
4196894,15644.53125,528,-0.3237277744,8864,5.4347026364,-9312,5.709380748,218,-13.0487804878,214,-13.2926829268,1186,-72.3170731707,-26,0.1130434783,-146,-0.6347826087,80,-0.3902439024
4197534,15664.0625,1504,-0.9221336603,8928,5.4739423666,-9680,5.9350091968,218,-13.0487804878,214,-13.2926829268,1186,-72.3170731707,-29,0.1260869565,-148,-0.6434782609,82,-0.4
4198174,15683.59375,1488,-0.9123237278,9232,5.6603310852,-10480,6.4255058246,442,-13.7195121951,225,-26.9512195122,879,-53.5975609756,-28,0.1217391304,-148,-0.6434782609,81,-0.3951219512
4198814,15703.125,688,-0.4218270999,9616,5.8957694666,-11184,6.8571428571,210,-10.1829268293,167,-12.8048780488,583,-35.5487804878,-34,0.147826087,-146,-0.6347826087,80,-0.3902439024
4199454,15722.65625,48,-0.0294297977,9840,6.0331085224,-11536,7.0729613734,210,-10.1829268293,167,-12.8048780488,583,-35.5487804878,-32,0.1391304348,-148,-0.6434782609,82,-0.4
4200094,15742.1875,224,-0.1373390558,9728,5.9644389945,-11600,7.1122011036,-110,-3.7195121951,61,6.7073170732,297,-18.1097560976,-34,0.147826087,-146,-0.6347826087,83,-0.4048780488
4200734,15761.71875,208,-0.1275291232,9920,6.0821581852,-11552,7.0827713059,-110,-3.7195121951,61,6.7073170732,297,-18.1097560976,-34,0.147826087,-151,-0.6565217391,83,-0.4048780488
4201374,15781.25,-896,0.5493562232,10064,6.1704475782,-11984,7.347639485,-33,-1.0975609756,18,2.012195122,83,-5.0609756098,-35,0.152173913,-148,-0.6434782609,81,-0.3951219512
4202014,15800.78125,-1616,0.9908031882,10224,6.2685469037,-12272,7.524218271,-235,2.987804878,-49,14.3292682927,-111,6.7682926829,-36,0.1565217391,-147,-0.6391304348,85,-0.4146341463
4202654,15820.3125,-1680,1.0300429185,10208,6.2587369712,-12096,7.4163090129,-235,2.987804878,-49,14.3292682927,-111,6.7682926829,-34,0.147826087,-149,-0.647826087,83,-0.4048780488
4203294,15839.84375,-1792,1.0987124464,10192,6.2489270386,-11920,7.3083997548,-230,5.0609756098,-83,14.0243902439,-218,13.2926829268,-35,0.152173913,-152,-0.6608695652,85,-0.4146341463
4203934,15859.375,-2208,1.3537706928,10240,6.2783568363,-11840,7.259350092,-230,5.0609756098,-83,14.0243902439,-218,13.2926829268,-33,0.1434782609,-145,-0.6304347826,83,-0.4048780488
4204574,15878.90625,-2656,1.6284488044,10272,6.2979767014,-11488,7.0435315757,-230,6.3414634146,-104,14.0243902439,-348,21.2195121951,-34,0.147826087,-146,-0.6347826087,83,-0.4048780488
4205214,15898.4375,-2592,1.5892090742,10016,6.1410177805,-10864,6.660944206,-295,4.9390243902,-81,17.987804878,-472,28.7804878049,-32,0.1391304348,-146,-0.6347826087,82,-0.4
4205854,15917.96875,-2160,1.3243408952,9760,5.9840588596,-10560,6.4745554874,-295,4.9390243902,-81,17.987804878,-472,28.7804878049,-32,0.1391304348,-147,-0.6391304348,85,-0.4146341463
4206494,15937.5,-1760,1.0790925812,9712,5.9546290619,-10288,6.307786634,-218,2.1341463415,-35,13.2926829268,-570,34.756097561,-31,0.1347826087,-149,-0.647826087,85,-0.4146341463
4207134,15957.03125,-1376,0.8436541999,9408,5.7682403433,-9760,5.9840588596,-149,-3.5975609756,59,9.0853658537,-677,41.2804878049,-27,0.1173913043,-146,-0.6347826087,84,-0.4097560976
4207774,15976.5625,-864,0.5297363581,9072,5.5622317597,-9168,5.621091355,-149,-3.5975609756,59,9.0853658537,-677,41.2804878049,-26,0.1130434783,-145,-0.6304347826,84,-0.4097560976
4208414,15996.09375,-112,0.0686695279,8656,5.3071735132,-8768,5.3758430411,-139,-12.6219512195,207,8.4756097561,-848,51.7073170732,-26,0.1130434783,-146,-0.6347826087,86,-0.4195121951
4209054,16015.625,-224,0.1373390558,8496,5.2090741876,-9344,5.7290006131,-139,-12.6219512195,207,8.4756097561,-848,51.7073170732,-23,0.1,-141,-0.6130434783,86,-0.4195121951
4209694,16035.15625,-320,0.1961986511,8160,5.0030656039,-10240,6.2783568363,-136,-18.7804878049,308,8.2926829268,-1051,64.0853658537,-20,0.0869565217,-144,-0.6260869565,88,-0.4292682927
4210334,16054.6875,304,-0.1863887186,7200,4.4144696505,-10048,6.1606376456,-165,-22.1341463415,363,10.0609756098,-1273,77.6219512195,-15,0.0652173913,-140,-0.6086956522,88,-0.4292682927
4210974,16074.21875,-736,0.4512568976,6272,3.8454935622,-11056,6.7786633967,-165,-22.1341463415,363,10.0609756098,-1273,77.6219512195,-16,0.0695652174,-135,-0.5869565217,89,-0.4341463415
4211614,16093.75,-2064,1.2654812998,6144,3.7670141018,-11904,7.2985898222,-451,-17.987804878,295,27.5,-1545,94.2073170732,-11,0.047826087,-132,-0.5739130435,90,-0.4390243902
4212254,16113.28125,-1424,0.8730839975,5536,3.3942366646,-11520,7.0631514408,-451,-17.987804878,295,27.5,-1545,94.2073170732,-9,0.0391304348,-134,-0.5826086957,93,-0.4536585366
4212894,16132.8125,-416,0.2550582465,4160,2.5505824647,-11824,7.2495401594,-645,-20.4268292683,335,39.3292682927,-1748,106.5853658537,-6,0.0260869565,-130,-0.5652173913,95,-0.4634146341
4213534,16152.34375,-2816,1.72654813,3632,2.2268546904,-13808,8.4659717964,-581,-20.0609756098,329,35.4268292683,-1913,116.6463414634,-3,0.0130434783,-124,-0.5391304348,94,-0.4585365854
4214174,16171.875,-4256,2.6094420601,3696,2.2660944206,-14176,8.6916002452,-581,-20.0609756098,329,35.4268292683,-1913,116.6463414634,0,0,-120,-0.5217391304,96,-0.4682926829
4214814,16191.40625,-2208,1.3537706928,2752,1.6873083998,-13744,8.4267320662,-1146,-19.8170731707,325,69.8780487805,-2085,127.1341463415,1,-0.0043478261,-119,-0.5173913043,100,-0.487804878
4215454,16210.9375,-768,0.4708767627,1184,0.7259350092,-13664,8.3776824034,-1146,-19.8170731707,325,69.8780487805,-2085,127.1341463415,5,-0.0217391304,-114,-0.4956521739,101,-0.4926829268
4216094,16230.46875,-2080,1.2752912324,240,0.1471489884,-14080,8.6327406499,-459,-25.4268292683,417,27.987804878,-2141,130.5487804878,9,-0.0391304348,-107,-0.4652173913,101,-0.4926829268
4216734,16250,-3712,2.2759043532,-112,-0.0686695279,-14640,8.9760882894,-344,-25.3658536585,416,20.9756097561,-2262,137.9268292683,13,-0.0565217391,-103,-0.447826087,104,-0.5073170732
4217374,16269.53125,-3888,2.3838136113,-544,-0.3335377069,-14928,9.1526670754,-344,-25.3658536585,416,20.9756097561,-2262,137.9268292683,13,-0.0565217391,-101,-0.4391304348,104,-0.5073170732
4218014,16289.0625,-3840,2.3543838136,-1824,-1.1183323115,-14880,9.1232372777,-205,-23.9024390244,392,12.5,-2350,143.2926829268,15,-0.0652173913,-95,-0.4130434783,105,-0.512195122
4218654,16308.59375,-4736,2.9037400368,-2800,-1.7167381974,-14992,9.1919068056,36,-18.9024390244,310,-2.1951219512,-2515,153.3536585366,18,-0.0782608696,-91,-0.3956521739,105,-0.512195122
4219294,16328.125,-5648,3.4629061925,-3248,-1.991416309,-15616,9.5744941754,36,-18.9024390244,310,-2.1951219512,-2515,153.3536585366,21,-0.0913043478,-84,-0.3652173913,106,-0.5170731707
4219934,16347.65625,-6320,3.8749233599,-4192,-2.5702023299,-15696,9.6235438381,281,-10.7926829268,177,-17.1341463415,-2579,157.256097561,21,-0.0913043478,-75,-0.3260869565,106,-0.5170731707
4220574,16367.1875,-8992,5.5131820969,-4736,-2.9037400368,-15984,9.8001226242,281,-10.7926829268,177,-17.1341463415,-2579,157.256097561,22,-0.0956521739,-67,-0.2913043478,104,-0.5073170732
4221214,16386.71875,-10208,6.2587369712,-5232,-3.207847946,-15696,9.6235438381,-124,-3.7195121951,61,7.5609756098,-2657,162.012195122,24,-0.1043478261,-68,-0.2956521739,105,-0.512195122
4221854,16406.25,-8512,5.2188841202,-6000,-3.6787247088,-15568,9.5450643777,-217,-0.8536585366,14,13.2317073171,-2671,162.8658536585,24,-0.1043478261,-61,-0.2652173913,106,-0.5170731707
4222494,16425.78125,-7904,4.846106683,-6736,-4.1299816064,-15424,9.4567749847,-217,-0.8536585366,14,13.2317073171,-2671,162.8658536585,24,-0.1043478261,-54,-0.2347826087,105,-0.512195122
4223134,16445.3125,-10416,6.3862660944,-6752,-4.1397915389,-15120,9.2703862661,155,1.2195121951,-20,-9.4512195122,-2607,158.9634146341,24,-0.1043478261,-48,-0.2086956522,103,-0.5024390244
4223774,16464.84375,-11712,7.1808706315,-6992,-4.2869405273,-14560,8.9270386266,155,1.2195121951,-20,-9.4512195122,-2607,158.9634146341,25,-0.1086956522,-46,-0.2,105,-0.512195122
4224414,16484.375,-9792,6.0036787247,-7856,-4.8166768853,-13984,8.5738810546,-410,1.6463414634,-27,25,-2569,156.6463414634,23,-0.1,-32,-0.1391304348,104,-0.5073170732
4225054,16503.90625,-8944,5.4837522992,-8160,-5.0030656039,-13840,8.4855916616,-268,-2.4390243902,40,16.3414634146,-2510,153.0487804878,20,-0.0869565217,-30,-0.1304347826,105,-0.512195122
4225694,16523.4375,-11008,6.749233599,-7376,-4.5223789086,-14352,8.7995095034,-268,-2.4390243902,40,16.3414634146,-2510,153.0487804878,21,-0.0913043478,-25,-0.1086956522,104,-0.5073170732
4226334,16542.96875,-9904,6.0723482526,-7984,-4.8951563458,-13600,8.3384426732,-533,-3.1097560976,51,32.5,-2414,147.1951219512,18,-0.0782608696,-21,-0.0913043478,105,-0.512195122
4226974,16562.5,-8960,5.4935622318,-8832,-5.4150827713,-13152,8.0637645616,-533,-3.1097560976,51,32.5,-2414,147.1951219512,16,-0.0695652174,-15,-0.0652173913,107,-0.5219512195
4227614,16582.03125,-9376,5.7486204782,-9296,-5.6995708155,-12784,7.8381361128,-330,-7.8658536585,129,20.1219512195,-2330,142.0731707317,15,-0.0652173913,-14,-0.0608695652,106,-0.5170731707
4228254,16601.5625,-9664,5.9251992643,-8640,-5.2973635806,-12880,7.8969957082,-741,-11.2804878049,185,45.1829268293,-2331,142.1341463415,13,-0.0565217391,-8,-0.0347826087,109,-0.5317073171
4228894,16621.09375,-7664,4.6989576947,-8096,-4.9638258737,-13168,8.0735744942,-741,-11.2804878049,185,45.1829268293,-2331,142.1341463415,10,-0.0434782609,-7,-0.0304347826,110,-0.5365853659
4229534,16640.625,-5904,3.6198651134,-8480,-5.1992642551,-12960,7.9460453709,-559,-11.8902439024,195,34.0853658537,-2240,136.5853658537,7,-0.0304347826,-5,-0.0217391304,110,-0.5365853659
4230174,16660.15625,-7248,4.4438994482,-9024,-5.532801962,-12640,7.7498467198,-319,-14.2682926829,234,19.4512195122,-2175,132.6219512195,6,-0.0260869565,1,0.0043478261,110,-0.5365853659
4230814,16679.6875,-7808,4.7872470877,-9440,-5.7878602085,-11792,7.2299202943,-319,-14.2682926829,234,19.4512195122,-2175,132.6219512195,3,-0.0130434783,10,0.0434782609,110,-0.5365853659
4231454,16699.21875,-5824,3.5708154506,-9888,-6.06253832,-11744,7.2004904966,-576,-14.6951219512,241,35.1219512195,-2189,133.4756097561,-3,0.0130434783,14,0.0608695652,110,-0.5365853659
4232094,16718.75,-4688,2.8743102391,-10960,-6.7198038013,-11872,7.2789699571,-576,-14.6951219512,241,35.1219512195,-2189,133.4756097561,-5,0.0217391304,21,0.0913043478,109,-0.5317073171
4232734,16738.28125,-6128,3.7572041692,-11824,-7.2495401594,-11792,7.2299202943,-146,-21.3414634146,350,8.9024390244,-2102,128.1707317073,-9,0.0391304348,24,0.1043478261,109,-0.5317073171
4233374,16757.8125,-6752,4.1397915389,-12832,-7.8675659105,-11632,7.1318209687,-352,-31.2804878049,513,21.4634146341,-2058,125.487804878,-9,0.0391304348,22,0.0956521739,111,-0.5414634146
4234014,16777.34375,-5232,3.207847946,-13984,-8.5738810546,-11856,7.2691600245,-352,-31.2804878049,513,21.4634146341,-2058,125.487804878,-16,0.0695652174,28,0.1217391304,108,-0.5268292683
4234654,16796.875,-3664,2.2464745555,-14480,-8.8779889638,-12320,7.5536480687,-30,-39.8780487805,654,1.8292682927,-1933,117.8658536585,-15,0.0652173913,25,0.1086956522,110,-0.5365853659
4235294,16816.40625,-3520,2.1581851625,-14528,-8.9074187615,-12512,7.6713672594,-30,-39.8780487805,654,1.8292682927,-1933,117.8658536585,-19,0.0826086957,35,0.152173913,106,-0.5170731707
4235934,16835.9375,-5424,3.3255671367,-13936,-8.5444512569,-13472,8.2599632128,783,-46.5243902439,763,-47.743902439,-1819,110.9146341463,-20,0.0869565217,34,0.147826087,105,-0.512195122
4236574,16855.46875,-7264,4.4537093807,-13728,-8.4169221337,-13504,8.2795830779,861,-42.9268292683,704,-52.5,-1786,108.9024390244,-25,0.1086956522,40,0.1739130435,101,-0.4926829268
4237214,16875,-8032,4.9245861435,-13456,-8.2501532802,-13424,8.2305334151,861,-42.9268292683,704,-52.5,-1786,108.9024390244,-26,0.1130434783,38,0.1652173913,102,-0.4975609756
4237854,16894.53125,-8096,4.9638258737,-13168,-8.0735744942,-14128,8.6621704476,784,-33.9024390244,556,-47.8048780488,-1790,109.1463414634,-30,0.1304347826,38,0.1652173913,98,-0.4780487805
4238494,16914.0625,-8880,5.444512569,-13216,-8.1030042918,-14224,8.7210300429,1062,-24.9390243902,409,-64.756097561,-1658,101.0975609756,-28,0.1217391304,42,0.1826086957,95,-0.4634146341
4239134,16933.59375,-12448,7.6321275291,-12672,-7.7694665849,-14656,8.9858982219,1062,-24.9390243902,409,-64.756097561,-1658,101.0975609756,-34,0.147826087,46,0.2,92,-0.4487804878
4239774,16953.125,-15600,9.5646842428,-11648,-7.1416309013,-15424,9.4567749847,366,-16.8902439024,277,-22.3170731707,-1398,85.243902439,-35,0.152173913,46,0.2,92,-0.4487804878
4240414,16972.65625,-14736,9.0349478847,-11040,-6.7688534641,-16064,9.8491722869,366,-16.8902439024,277,-22.3170731707,-1398,85.243902439,-39,0.1695652174,49,0.2130434783,92,-0.4487804878
4241054,16992.1875,-12320,7.5536480687,-11136,-6.8277130595,-16608,10.1827099939,-285,-13.1097560976,215,17.3780487805,-977,59.5731707317,-40,0.1739130435,47,0.2043478261,91,-0.443902439
4241694,17011.71875,-11232,6.8865726548,-11296,-6.925812385,-16448,10.0846106683,9,-6.5243902439,107,-0.5487804878,-469,28.5975609756,-44,0.1913043478,51,0.2217391304,90,-0.4390243902
4242334,17031.25,-11168,6.8473329246,-11712,-7.1808706315,-15008,9.2017167382,9,-6.5243902439,107,-0.5487804878,-469,28.5975609756,-41,0.1782608696,53,0.2304347826,89,-0.4341463415
4242974,17050.78125,-9696,5.9448191294,-12272,-7.524218271,-14096,8.6425505825,38,-2.6829268293,44,-2.3170731707,-33,2.012195122,-44,0.1913043478,50,0.2173913043,89,-0.4341463415
4243614,17070.3125,-7600,4.6597179644,-12560,-7.700797057,-13920,8.5346413243,38,-2.6829268293,44,-2.3170731707,-33,2.012195122,-41,0.1782608696,47,0.2043478261,91,-0.443902439
4244254,17089.84375,-6512,3.9926425506,-12432,-7.6223175966,-13488,8.2697731453,143,1.3414634146,-22,-8.7195121951,222,-13.5365853659,-40,0.1739130435,45,0.1956521739,91,-0.443902439
4244894,17109.375,-6464,3.9632127529,-11920,-7.3083997548,-12800,7.8479460454,158,5.3048780488,-87,-9.6341463415,416,-25.3658536585,-42,0.1826086957,49,0.2130434783,88,-0.4292682927
4245534,17128.90625,-6176,3.7866339669,-11616,-7.1220110362,-12016,7.3672593501,158,5.3048780488,-87,-9.6341463415,416,-25.3658536585,-39,0.1695652174,49,0.2130434783,89,-0.4341463415
4246174,17148.4375,-5536,3.3942366646,-11424,-7.0042918455,-11616,7.1220110362,-117,8.1707317073,-134,7.1341463415,517,-31.5243902439,-39,0.1695652174,47,0.2043478261,91,-0.443902439
4246814,17167.96875,-5120,3.1391784181,-11344,-6.9552421827,-11536,7.0729613734,-117,8.1707317073,-134,7.1341463415,517,-31.5243902439,-38,0.1652173913,46,0.2,92,-0.4487804878
4247454,17187.5,-5632,3.45309626,-11424,-7.0042918455,-11456,7.0239117106,-143,10.5487804878,-173,8.7195121951,600,-36.5853658537,-38,0.1652173913,46,0.2,91,-0.443902439
4248094,17207.03125,-6032,3.6983445739,-11712,-7.1808706315,-11280,6.9160024525,-268,12.4390243902,-204,16.3414634146,655,-39.9390243902,-34,0.147826087,45,0.1956521739,91,-0.443902439
4248734,17226.5625,-6864,4.2084610668,-11552,-7.0827713059,-11472,7.0337216432,-268,12.4390243902,-204,16.3414634146,655,-39.9390243902,-35,0.152173913,43,0.1869565217,93,-0.4536585366
4249374,17246.09375,-7648,4.6891477621,-11712,-7.1808706315,-12048,7.3868792152,-278,13.2926829268,-218,16.9512195122,718,-43.7804878049,-32,0.1391304348,44,0.1913043478,93,-0.4536585366
4250014,17265.625,-9184,5.6309012876,-11664,-7.1514408338,-12976,7.9558553035,-218,15.3048780488,-251,13.2926829268,899,-54.8170731707,-31,0.1347826087,42,0.1826086957,93,-0.4536585366
4250654,17285.15625,-10112,6.1998773758,-11920,-7.3083997548,-13120,8.0441446965,-218,15.3048780488,-251,13.2926829268,899,-54.8170731707,-32,0.1391304348,47,0.2043478261,92,-0.4487804878
4251294,17304.6875,-10128,6.2096873084,-12336,-7.5634580012,-14208,8.7112201104,-61,16.6463414634,-273,3.7195121951,1215,-74.0853658537,-30,0.1304347826,44,0.1913043478,94,-0.4585365854
4251934,17324.21875,-10912,6.6903740037,-12768,-7.8283261803,-15296,9.3782955242,-61,16.6463414634,-273,3.7195121951,1215,-74.0853658537,-26,0.1130434783,42,0.1826086957,96,-0.4682926829
4252574,17343.75,-11968,7.3378295524,-13456,-8.2501532802,-15760,9.6627835684,289,17.9268292683,-294,-17.6219512195,1547,-94.3292682927,-25,0.1086956522,41,0.1782608696,95,-0.4634146341
4253214,17363.28125,-12080,7.4064990803,-14352,-8.7995095034,-16064,9.8491722869,193,20.3048780488,-333,-11.7682926829,1786,-108.9024390244,-19,0.0826086957,34,0.147826087,96,-0.4682926829
4253854,17382.8125,-11616,7.1220110362,-14736,-9.0349478847,-16144,9.8982219497,193,20.3048780488,-333,-11.7682926829,1786,-108.9024390244,-19,0.0826086957,33,0.1434782609,95,-0.4634146341
4254494,17402.34375,-11312,6.9356223176,-15408,-9.4469650521,-16400,10.0551808706,341,25.9756097561,-426,-20.7926829268,2072,-126.3414634146,-13,0.0565217391,32,0.1391304348,96,-0.4682926829
4255134,17421.875,-11184,6.8571428571,-15872,-9.7314530963,-16336,10.0159411404,341,25.9756097561,-426,-20.7926829268,2072,-126.3414634146,-11,0.047826087,32,0.1391304348,96,-0.4682926829
4255774,17441.40625,-11408,6.9944819129,-14912,-9.1428571429,-15856,9.7216431637,660,29.512195122,-484,-40.243902439,2349,-143.2317073171,-7,0.0304347826,23,0.1,96,-0.4682926829
4256414,17460.9375,-11776,7.2201103617,-13840,-8.4855916616,-14976,9.1820968731,477,29.8170731707,-489,-29.0853658537,2549,-155.4268292683,-2,0.0086956522,22,0.0956521739,97,-0.4731707317
4257054,17480.46875,-11328,6.9454322502,-13616,-8.3482526058,-14448,8.8583690987,477,29.8170731707,-489,-29.0853658537,2549,-155.4268292683,1,-0.0043478261,22,0.0956521739,95,-0.4634146341
4257694,17500,-10320,6.3274064991,-13424,-8.2305334151,-14112,8.652360515,228,28.5365853659,-468,-13.9024390244,2679,-163.3536585366,4,-0.0173913043,14,0.0608695652,95,-0.4634146341
4258334,17519.53125,-9168,5.621091355,-12672,-7.7694665849,-13632,8.3580625383,181,26.4634146341,-434,-11.0365853659,2772,-169.0243902439,10,-0.0434782609,3,0.0130434783,96,-0.4682926829
4258974,17539.0625,-8960,5.4935622318,-11888,-7.2887798896,-13360,8.1912936849,181,26.4634146341,-434,-11.0365853659,2772,-169.0243902439,9,-0.0391304348,6,0.0260869565,95,-0.4634146341
4259614,17558.59375,-8480,5.1992642551,-11616,-7.1220110362,-12928,7.9264255058,13,24.4512195122,-401,-0.7926829268,2827,-172.3780487805,16,-0.0695652174,-8,-0.0347826087,98,-0.4780487805
4260254,17578.125,-7824,4.7970570202,-11040,-6.7688534641,-12688,7.7792765175,13,24.4512195122,-401,-0.7926829268,2827,-172.3780487805,16,-0.0695652174,-7,-0.0304347826,96,-0.4682926829
4260894,17597.65625,-7232,4.4340895156,-10448,-6.4058859595,-12560,7.700797057,-144,24.9390243902,-409,8.7804878049,2795,-170.4268292683,19,-0.0826086957,-15,-0.0652173913,98,-0.4780487805
4261534,17617.1875,-6624,4.0613120785,-10064,-6.1704475782,-12752,7.8185162477,-174,25.4268292683,-417,10.6097560976,2744,-167.3170731707,21,-0.0913043478,-15,-0.0652173913,97,-0.4731707317
4262174,17636.71875,-6368,3.9043531576,-9328,-5.7191906806,-12608,7.7302268547,-174,25.4268292683,-417,10.6097560976,2744,-167.3170731707,24,-0.1043478261,-29,-0.1260869565,99,-0.4829268293
4262814,17656.25,-6208,3.806253832,-8160,-5.0030656039,-12560,7.700797057,-227,27.3170731707,-448,13.8414634146,2665,-162.5,23,-0.1,-32,-0.1391304348,100,-0.487804878
4263454,17675.78125,-5968,3.6591048437,-7216,-4.4242795831,-12656,7.7596566524,-227,27.3170731707,-448,13.8414634146,2665,-162.5,25,-0.1086956522,-41,-0.1782608696,100,-0.487804878
4264094,17695.3125,-5504,3.3746167995,-6384,-3.9141630901,-12464,7.6419374617,-253,28.3536585366,-465,15.4268292683,2560,-156.0975609756,25,-0.1086956522,-42,-0.1826086957,101,-0.4926829268
4264734,17714.84375,-5232,3.207847946,-5552,-3.4040465972,-12304,7.5438381361,-172,28.5365853659,-468,10.487804878,2400,-146.3414634146,25,-0.1086956522,-53,-0.2304347826,101,-0.4926829268
4265374,17734.375,-5168,3.1686082158,-4432,-2.7173513182,-12448,7.6321275291,-172,28.5365853659,-468,10.487804878,2400,-146.3414634146,26,-0.1130434783,-55,-0.2391304348,103,-0.5024390244
4266014,17753.90625,-5248,3.2176578786,-3504,-2.1483752299,-12368,7.5830778663,0,29.8170731707,-489,0,2236,-136.3414634146,25,-0.1086956522,-60,-0.2608695652,103,-0.5024390244
4266654,17773.4375,-5552,3.4040465972,-2976,-1.8246474555,-12080,7.4064990803,0,29.8170731707,-489,0,2236,-136.3414634146,23,-0.1,-64,-0.2782608696,100,-0.487804878
4267294,17792.96875,-5808,3.5610055181,-2464,-1.5107296137,-12448,7.6321275291,41,28.1097560976,-461,-2.5,2144,-130.7317073171,24,-0.1043478261,-69,-0.3,102,-0.4975609756
4267934,17812.5,-5984,3.6689147762,-1392,-0.8534641324,-12448,7.6321275291,-78,26.5243902439,-435,4.756097561,2040,-124.3902439024,23,-0.1,-77,-0.3347826087,101,-0.4926829268
4268574,17832.03125,-5056,3.0999386879,-688,-0.4218270999,-12448,7.6321275291,-78,26.5243902439,-435,4.756097561,2040,-124.3902439024,20,-0.0869565217,-81,-0.352173913,102,-0.4975609756
4269214,17851.5625,-4720,2.8939301042,-272,-0.1667688535,-12208,7.4849785408,144,22.1341463415,-363,-8.7804878049,2008,-122.4390243902,20,-0.0869565217,-85,-0.3695652174,101,-0.4926829268
4269854,17871.09375,-5248,3.2176578786,272,0.1667688535,-12064,7.3966891478,9,18.7195121951,-307,-0.5487804878,1929,-117.6219512195,18,-0.0782608696,-86,-0.3739130435,99,-0.4829268293
4270494,17890.625,-4880,2.9920294298,1104,0.6768853464,-12256,7.5144083384,9,18.7195121951,-307,-0.5487804878,1929,-117.6219512195,17,-0.0739130435,-96,-0.4173913043,101,-0.4926829268
4271134,17910.15625,-3216,1.9717964439,1728,1.0594727161,-12624,7.7400367872,84,17.8048780488,-292,-5.1219512195,1831,-111.6463414634,15,-0.0652173913,-94,-0.4086956522,102,-0.4975609756
4271774,17929.6875,-2768,1.6971183323,2432,1.4911097486,-12944,7.9362354384,84,17.8048780488,-292,-5.1219512195,1831,-111.6463414634,12,-0.052173913,-101,-0.4391304348,102,-0.4975609756
4272414,17949.21875,-3696,2.2660944206,3184,1.9521765788,-12944,7.9362354384,460,16.4634146341,-270,-28.0487804878,1717,-104.6951219512,12,-0.052173913,-106,-0.4608695652,100,-0.487804878
4273054,17968.75,-4160,2.5505824647,3616,2.2170447578,-12880,7.8969957082,323,17.8048780488,-292,-19.6951219512,1539,-93.8414634146,9,-0.0391304348,-103,-0.447826087,97,-0.4731707317
4273694,17988.28125,-4032,2.4721030043,4096,2.5113427345,-12752,7.8185162477,323,17.8048780488,-292,-19.6951219512,1539,-93.8414634146,8,-0.0347826087,-109,-0.4739130435,97,-0.4731707317
4274334,18007.8125,-4048,2.4819129368,4560,2.7958307787,-12608,7.7302268547,223,19.5731707317,-321,-13.5975609756,1385,-84.4512195122,5,-0.0217391304,-111,-0.4826086957,96,-0.4682926829
4274974,18027.34375,-3840,2.3543838136,5104,3.1293684856,-12400,7.6026977315,223,19.5731707317,-321,-13.5975609756,1385,-84.4512195122,6,-0.0260869565,-118,-0.5130434783,97,-0.4731707317
4275614,18046.875,-3360,2.0600858369,5408,3.3157572042,-12432,7.6223175966,200,19.3292682927,-317,-12.1951219512,1218,-74.2682926829,2,-0.0086956522,-122,-0.5304347826,96,-0.4682926829
4276254,18066.40625,-3152,1.9325567137,5680,3.4825260576,-12064,7.3966891478,320,17.4390243902,-286,-19.512195122,1118,-68.1707317073,1,-0.0043478261,-118,-0.5130434783,94,-0.4585365854
4276894,18085.9375,-3376,2.0698957695,6112,3.7473942367,-11888,7.2887798896,320,17.4390243902,-286,-19.512195122,1118,-68.1707317073,-2,0.0086956522,-118,-0.5130434783,93,-0.4536585366
4277534,18105.46875,-3568,2.1876149601,6576,4.0318822808,-11280,6.9160024525,254,14.8170731707,-243,-15.487804878,1038,-63.2926829268,-5,0.0217391304,-127,-0.552173913,93,-0.4536585366
4278174,18125,-3200,1.9619865113,7200,4.4144696505,-11056,6.7786633967,254,14.8170731707,-243,-15.487804878,1038,-63.2926829268,-6,0.0260869565,-127,-0.552173913,92,-0.4487804878
4278814,18144.53125,-2640,1.6186388719,7312,4.4831391784,-11136,6.8277130595,159,9.9390243902,-163,-9.6951219512,935,-57.012195122,-5,0.0217391304,-128,-0.5565217391,92,-0.4487804878
4279454,18164.0625,-2528,1.549969344,7568,4.6400980993,-11184,6.8571428571,213,6.4634146341,-106,-12.987804878,809,-49.3292682927,-8,0.0347826087,-132,-0.5739130435,92,-0.4487804878
4280094,18183.59375,-2336,1.4322501533,7936,4.8657265481,-10720,6.572654813,213,6.4634146341,-106,-12.987804878,809,-49.3292682927,-8,0.0347826087,-131,-0.5695652174,91,-0.443902439
4280734,18203.125,-2240,1.3733905579,8192,5.022685469,-10768,6.6020846107,177,2.6829268293,-44,-10.7926829268,689,-42.012195122,-12,0.052173913,-131,-0.5695652174,91,-0.443902439
4281374,18222.65625,-2352,1.4420600858,8352,5.1207847946,-11120,6.8179031269,150,0.7926829268,-13,-9.1463414634,548,-33.4146341463,-11,0.047826087,-136,-0.5913043478,91,-0.443902439
4282014,18242.1875,-2416,1.4812998161,8560,5.2483139178,-11152,6.837522992,150,0.7926829268,-13,-9.1463414634,548,-33.4146341463,-13,0.0565217391,-136,-0.5913043478,91,-0.443902439
4282654,18261.71875,-2752,1.6873083998,8704,5.3366033109,-11440,7.0141017781,84,-0.5487804878,9,-5.1219512195,398,-24.2682926829,-13,0.0565217391,-130,-0.5652173913,90,-0.4390243902
4283294,18281.25,-3264,2.0012262416,8736,5.356223176,-11840,7.259350092,84,-0.5487804878,9,-5.1219512195,398,-24.2682926829,-15,0.0652173913,-135,-0.5869565217,91,-0.443902439
4283934,18300.78125,-3088,1.8933169834,8704,5.3366033109,-11824,7.2495401594,-54,-0.3658536585,6,3.2926829268,280,-17.0731707317,-15,0.0652173913,-135,-0.5869565217,92,-0.4487804878
4284574,18320.3125,-3568,2.1876149601,8832,5.4150827713,-11936,7.3182096873,-56,-0.3658536585,6,3.4146341463,187,-11.4024390244,-15,0.0652173913,-138,-0.6,93,-0.4536585366
4285214,18339.84375,-4304,2.6388718578,8976,5.5033721643,-12400,7.6026977315,-56,-0.3658536585,6,3.4146341463,187,-11.4024390244,-16,0.0695652174,-135,-0.5869565217,91,-0.443902439
4285854,18359.375,-4528,2.7762109135,9056,5.5524218271,-12992,7.9656652361,-223,-0.0609756098,1,13.5975609756,98,-5.9756097561,-15,0.0652173913,-135,-0.5869565217,92,-0.4487804878
4286494,18378.90625,-3968,2.4328632741,8848,5.4248927039,-13392,8.21091355,-223,-0.0609756098,1,13.5975609756,98,-5.9756097561,-17,0.0739130435,-132,-0.5739130435,92,-0.4487804878
4287134,18398.4375,-4640,2.8448804414,8832,5.4150827713,-13888,8.5150214592,-133,2.6829268293,-44,8.1097560976,64,-3.9024390244,-16,0.0695652174,-138,-0.6,94,-0.4585365854
4287774,18417.96875,-5264,3.2274678112,8800,5.3954629062,-13632,8.3580625383,-298,7.3170731707,-120,18.1707317073,46,-2.8048780488,-16,0.0695652174,-137,-0.5956521739,93,-0.4536585366
4288414,18437.5,-4080,2.501532802,8864,5.4347026364,-13088,8.0245248314,-298,7.3170731707,-120,18.1707317073,46,-2.8048780488,-16,0.0695652174,-138,-0.6,93,-0.4536585366
4289054,18457.03125,-2752,1.6873083998,8896,5.4543225015,-12608,7.7302268547,-150,8.6585365854,-142,9.1463414634,17,-1.0365853659,-19,0.0826086957,-138,-0.6,93,-0.4536585366
4289694,18476.5625,-2672,1.638258737,8880,5.444512569,-12064,7.3966891478,73,5.1829268293,-85,-4.4512195122,-40,2.4390243902,-18,0.0782608696,-135,-0.5869565217,93,-0.4536585366
4290334,18496.09375,-2576,1.5793991416,8896,5.4543225015,-11088,6.7982832618,73,5.1829268293,-85,-4.4512195122,-40,2.4390243902,-16,0.0695652174,-139,-0.6043478261,93,-0.4536585366
4290974,18515.625,-1296,0.7946045371,8592,5.267933783,-10048,6.1606376456,-182,0.4268292683,-7,11.0975609756,-164,10,-21,0.0913043478,-139,-0.6043478261,93,-0.4536585366
4291614,18535.15625,-224,0.1373390558,8368,5.1305947272,-9728,5.9644389945,-182,0.4268292683,-7,11.0975609756,-164,10,-19,0.0826086957,-134,-0.5826086957,93,-0.4536585366
4292254,18554.6875,896,-0.5493562232,8432,5.1698344574,-9264,5.6799509503,-214,-6.0975609756,100,13.0487804878,-334,20.3658536585,-16,0.0695652174,-134,-0.5826086957,96,-0.4682926829
4292894,18574.21875,1952,-1.1968117719,8256,5.0619251993,-8848,5.4248927039,-308,-15,246,18.7804878049,-593,36.1585365854,-16,0.0695652174,-133,-0.5782608696,96,-0.4682926829
4293534,18593.75,2512,-1.5401594114,7840,4.8068669528,-8816,5.4052728387,-308,-15,246,18.7804878049,-593,36.1585365854,-14,0.0608695652,-131,-0.5695652174,96,-0.4682926829
4294174,18613.28125,2512,-1.5401594114,7184,4.404659718,-8864,5.4347026364,-405,-22.3780487805,367,24.6951219512,-933,56.8902439024,-14,0.0608695652,-132,-0.5739130435,96,-0.4682926829
4294814,18632.8125,2544,-1.5597792765,6720,4.1201716738,-8832,5.4150827713,-405,-22.3780487805,367,24.6951219512,-933,56.8902439024,-12,0.052173913,-126,-0.547826087,98,-0.4780487805
4295454,18652.34375,3392,-2.079705702,5888,3.6100551809,-8544,5.2385039853,-506,-27.987804878,459,30.8536585366,-1230,75,-11,0.047826087,-127,-0.552173913,101,-0.4926829268
4296094,18671.875,3296,-2.0208461067,5136,3.1489883507,-9760,5.9840588596,-246,-36.1585365854,593,15,-1522,92.8048780488,-7,0.0304347826,-124,-0.5391304348,103,-0.5024390244
4296734,18691.40625,1392,-0.8534641324,4720,2.8939301042,-11216,6.8767627223,-246,-36.1585365854,593,15,-1522,92.8048780488,-3,0.0130434783,-120,-0.5217391304,103,-0.5024390244
4297374,18710.9375,1040,-0.6376456162,4080,2.501532802,-11504,7.0533415083,-585,-38.5365853659,632,35.6707317073,-1808,110.243902439,1,-0.0043478261,-116,-0.5043478261,107,-0.5219512195
4298014,18730.46875,2576,-1.5793991416,2832,1.7363580625,-11920,7.3083997548,-585,-38.5365853659,632,35.6707317073,-1808,110.243902439,0,0,-116,-0.5043478261,108,-0.5268292683
4298654,18750,1264,-0.774984672,2080,1.2752912324,-13408,8.2207234825,-240,-44.5731707317,731,14.6341463415,-1992,121.4634146341,5,-0.0217391304,-110,-0.4782608696,111,-0.5414634146
4299294,18769.53125,-1840,1.128142244,1728,1.0594727161,-14784,9.0643776824,-229,-42.3170731707,694,13.9634146341,-2142,130.6097560976,7,-0.0304347826,-103,-0.447826087,110,-0.5365853659
4299934,18789.0625,-2080,1.2752912324,928,0.5689760883,-15312,9.3881054568,-229,-42.3170731707,694,13.9634146341,-2142,130.6097560976,8,-0.0347826087,-102,-0.4434782609,112,-0.5463414634
4300574,18808.59375,-1056,0.6474555487,-400,-0.2452483139,-15600,9.5646842428,-562,-39.1463414634,642,34.2682926829,-2274,138.6585365854,10,-0.0434782609,-93,-0.4043478261,114,-0.556097561
4301214,18828.125,-2272,1.3930104231,-928,-0.5689760883,-16432,10.0748007357,-265,-38.0487804878,624,16.1585365854,-2360,143.9024390244,13,-0.0565217391,-94,-0.4086956522,114,-0.556097561
4301854,18847.65625,-3872,2.3740036787,-1584,-0.9711833231,-17008,10.4279583078,-265,-38.0487804878,624,16.1585365854,-2360,143.9024390244,15,-0.0652173913,-88,-0.3826086957,116,-0.5658536585
4302494,18867.1875,-3520,2.1581851625,-2656,-1.6284488044,-17232,10.5652973636,-455,-32.5,533,27.743902439,-2485,151.5243902439,13,-0.0565217391,-81,-0.352173913,117,-0.5707317073
4303134,18886.71875,-3408,2.0895156346,-3616,-2.2170447578,-17168,10.5260576334,-455,-32.5,533,27.743902439,-2485,151.5243902439,16,-0.0695652174,-72,-0.3130434783,118,-0.5756097561
4303774,18906.25,-5104,3.1293684856,-4192,-2.5702023299,-16992,10.4181483752,-383,-29.2073170732,479,23.3536585366,-2546,155.243902439,17,-0.0739130435,-72,-0.3130434783,119,-0.5804878049
4304414,18925.78125,-5472,3.3549969344,-4656,-2.854690374,-16768,10.2808093194,-839,-25.7317073171,422,51.1585365854,-2656,161.9512195122,17,-0.0739130435,-62,-0.2695652174,119,-0.5804878049
4305054,18945.3125,-3184,1.9521765788,-5600,-3.4334763948,-16368,10.0355610055,-839,-25.7317073171,422,51.1585365854,-2656,161.9512195122,17,-0.0739130435,-56,-0.2434782609,119,-0.5804878049
4305694,18964.84375,-2240,1.3733905579,-6880,-4.2182709994,-15824,9.7020232986,-317,-27.4390243902,450,19.3292682927,-2668,162.6829268293,17,-0.0739130435,-49,-0.2130434783,122,-0.5951219512
4306334,18984.375,-4480,2.7467811159,-7616,-4.669527897,-15248,9.3488657265,-317,-27.4390243902,450,19.3292682927,-2668,162.6829268293,14,-0.0608695652,-47,-0.2043478261,121,-0.5902439024
4306974,19003.90625,-5440,3.3353770693,-7456,-4.5714285714,-15552,9.5352544451,-262,-27.1341463415,445,15.9756097561,-2732,166.5853658537,14,-0.0608695652,-38,-0.1652173913,122,-0.5951219512
4307614,19023.4375,-3968,2.4328632741,-7968,-4.8853464132,-16032,9.8295524218,-176,-27.3780487805,449,10.7317073171,-2746,167.4390243902,15,-0.0652173913,-34,-0.147826087,122,-0.5951219512
4308254,19042.96875,-4064,2.4917228694,-9264,-5.6799509503,-15968,9.7903126916,-176,-27.3780487805,449,10.7317073171,-2746,167.4390243902,14,-0.0608695652,-28,-0.1217391304,121,-0.5902439024
4308894,19062.5,-6576,4.0318822808,-9408,-5.7682403433,-15984,9.8001226242,201,-27.012195122,443,-12.256097561,-2769,168.8414634146,11,-0.047826087,-26,-0.1130434783,122,-0.5951219512
4309534,19082.03125,-7488,4.5910484365,-9200,-5.6407112201,-16240,9.9570815451,201,-27.012195122,443,-12.256097561,-2769,168.8414634146,10,-0.0434782609,-15,-0.0652173913,121,-0.5902439024
4310174,19101.5625,-6240,3.8258736971,-9808,-6.0134886573,-16096,9.8687921521,-39,-21.3414634146,350,2.3780487805,-2767,168.7195121951,10,-0.0434782609,-14,-0.0608695652,120,-0.5853658537
4310814,19121.09375,-6912,4.2378908645,-10800,-6.6217044758,-15904,9.7510729614,321,-19.8780487805,326,-19.5731707317,-2661,162.256097561,4,-0.0173913043,-2,-0.0086956522,118,-0.5756097561
4311454,19140.625,-8816,5.4052728387,-10992,-6.7394236665,-15760,9.6627835684,321,-19.8780487805,326,-19.5731707317,-2661,162.256097561,4,-0.0173913043,1,0.0043478261,117,-0.5707317073
4312094,19160.15625,-8720,5.3464132434,-11008,-6.749233599,-15824,9.7020232986,-24,-13.5975609756,223,1.4634146341,-2594,158.1707317073,0,0,6,0.0260869565,118,-0.5756097561
4312734,19179.6875,-7472,4.581238504,-11632,-7.1318209687,-15136,9.2801961987,-272,-11.3414634146,186,16.5853658537,-2497,152.256097561,0,0,7,0.0304347826,116,-0.5658536585
4313374,19199.21875,-7728,4.7381974249,-11440,-7.0141017781,-14784,9.0643776824,-272,-11.3414634146,186,16.5853658537,-2497,152.256097561,-5,0.0217391304,15,0.0652173913,118,-0.5756097561
4314014,19218.75,-8176,5.0128755365,-10400,-6.3764561619,-14736,9.0349478847,-677,-12.6219512195,207,41.2804878049,-2443,148.9634146341,-9,0.0391304348,17,0.0739130435,117,-0.5707317073
4314654,19238.28125,-5504,3.3746167995,-10160,-6.2293071735,-13792,8.4561618639,-677,-12.6219512195,207,41.2804878049,-2443,148.9634146341,-15,0.0652173913,23,0.1,117,-0.5707317073
4315294,19257.8125,-3392,2.079705702,-10272,-6.2979767014,-13472,8.2599632128,-703,-19.2073170732,315,42.8658536585,-2327,141.8902439024,-14,0.0608695652,25,0.1086956522,119,-0.5804878049
4315934,19277.34375,-3200,1.9619865113,-10656,-6.5334150828,-13328,8.1716738197,-122,-33.4756097561,549,7.4390243902,-2141,130.5487804878,-20,0.0869565217,30,0.1304347826,116,-0.5658536585
4316574,19296.875,-4464,2.7369711833,-10992,-6.7394236665,-13584,8.3286327406,-122,-33.4756097561,549,7.4390243902,-2141,130.5487804878,-22,0.0956521739,30,0.1304347826,116,-0.5658536585
4317214,19316.40625,-4256,2.6094420601,-11376,-6.9748620478,-13648,8.3678724709,-240,-41.1585365854,675,14.6341463415,-1950,118.9024390244,-26,0.1130434783,34,0.147826087,115,-0.5609756098
4317854,19335.9375,-2832,1.7363580625,-12048,-7.3868792152,-13808,8.4659717964,-240,-41.1585365854,675,14.6341463415,-1950,118.9024390244,-30,0.1304347826,33,0.1434782609,116,-0.5658536585
4318494,19355.46875,-2656,1.6284488044,-12704,-7.78908645,-13744,8.4267320662,-2,-44.1463414634,724,0.1219512195,-1822,111.0975609756,-33,0.1434782609,35,0.152173913,114,-0.556097561
4319134,19375,-4656,2.854690374,-12944,-7.9362354384,-14000,8.5836909871,435,-41.7682926829,685,-26.5243902439,-1851,112.8658536585,-34,0.147826087,38,0.1652173913,112,-0.5463414634
4319774,19394.53125,-6880,4.2182709994,-12688,-7.7792765175,-14896,9.1330472103,435,-41.7682926829,685,-26.5243902439,-1851,112.8658536585,-36,0.1565217391,39,0.1695652174,109,-0.5317073171
4320414,19414.0625,-7232,4.4340895156,-12896,-7.9068056407,-15120,9.2703862661,285,-30.9756097561,508,-17.3780487805,-1817,110.7926829268,-39,0.1695652174,46,0.2,109,-0.5317073171
4321054,19433.59375,-7360,4.5125689761,-12688,-7.7792765175,-15120,9.2703862661,513,-22.0731707317,362,-31.2804878049,-1595,97.256097561,-44,0.1913043478,48,0.2086956522,106,-0.5170731707
4321694,19453.125,-8784,5.3856529736,-12208,-7.4849785408,-15408,9.4469650521,513,-22.0731707317,362,-31.2804878049,-1595,97.256097561,-45,0.1956521739,45,0.1956521739,105,-0.512195122
4322334,19472.65625,-10784,6.6118945432,-11472,-7.0337216432,-15712,9.6333537707,431,-15.7317073171,258,-26.2804878049,-1234,75.243902439,-47,0.2043478261,49,0.2130434783,103,-0.5024390244
4322974,19492.1875,-10496,6.4353157572,-10944,-6.7099938688,-15472,9.4862047823,431,-15.7317073171,258,-26.2804878049,-1234,75.243902439,-48,0.2086956522,50,0.2173913043,104,-0.5073170732
4323614,19511.71875,-9328,5.7191906806,-10544,-6.4647455549,-15472,9.4862047823,124,-12.3170731707,202,-7.5609756098,-819,49.9390243902,-52,0.2260869565,50,0.2173913043,102,-0.4975609756
4324254,19531.25,-8272,5.0717351318,-10480,-6.4255058246,-15008,9.2017167382,315,-12.4390243902,204,-19.2073170732,-386,23.5365853659,-50,0.2173913043,48,0.2086956522,104,-0.5073170732
4324894,19550.78125,-7744,4.7480073574,-10448,-6.4058859595,-14688,9.0055180871,315,-12.4390243902,204,-19.2073170732,-386,23.5365853659,-50,0.2173913043,48,0.2086956522,102,-0.4975609756
4325534,19570.3125,-7168,4.3948497854,-10416,-6.3862660944,-14272,8.7504598406,352,-14.2073170732,233,-21.4634146341,-10,0.6097560976,-50,0.2173913043,51,0.2217391304,101,-0.4926829268
4326174,19589.84375,-6144,3.7670141018,-10336,-6.3372164316,-13904,8.5248313918,352,-14.2073170732,233,-21.4634146341,-10,0.6097560976,-49,0.2130434783,52,0.2260869565,100,-0.487804878
4326814,19609.375,-4432,2.7173513182,-10240,-6.2783568363,-13600,8.3384426732,156,-13.6585365854,224,-9.512195122,289,-17.6219512195,-51,0.2217391304,52,0.2260869565,99,-0.4829268293
4327454,19628.90625,-3888,2.3838136113,-10320,-6.3274064991,-13376,8.2011036174,151,-14.6341463415,240,-9.2073170732,533,-32.5,-51,0.2217391304,51,0.2217391304,100,-0.487804878
4328094,19648.4375,-4064,2.4917228694,-10256,-6.2881667689,-13248,8.122624157,151,-14.6341463415,240,-9.2073170732,533,-32.5,-47,0.2043478261,51,0.2217391304,99,-0.4829268293
4328734,19667.96875,-3152,1.9325567137,-10320,-6.3274064991,-13120,8.0441446965,-188,-12.987804878,213,11.4634146341,659,-40.1829268293,-50,0.2173913043,53,0.2304347826,97,-0.4731707317
4329374,19687.5,-2176,1.3341508277,-10752,-6.5922746781,-12992,7.9656652361,-188,-12.987804878,213,11.4634146341,659,-40.1829268293,-46,0.2,47,0.2043478261,99,-0.4829268293
4330014,19707.03125,-2512,1.5401594114,-10848,-6.6511342735,-13264,8.1324340895,-193,-10.9756097561,180,11.7682926829,733,-44.6951219512,-44,0.1913043478,49,0.2130434783,98,-0.4780487805
4330654,19726.5625,-3328,2.0404659718,-11024,-6.7590435316,-13632,8.3580625383,-215,-6.0365853659,99,13.1097560976,759,-46.2804878049,-43,0.1869565217,46,0.2,98,-0.4780487805
4331294,19746.09375,-3760,2.3053341508,-11264,-6.9061925199,-14384,8.8191293685,-215,-6.0365853659,99,13.1097560976,759,-46.2804878049,-42,0.1826086957,47,0.2043478261,98,-0.4780487805
4331934,19765.625,-4144,2.5407725322,-11552,-7.0827713059,-15376,9.427345187,-282,2.3170731707,-38,17.1951219512,768,-46.8292682927,-41,0.1782608696,52,0.2260869565,97,-0.4731707317
4332574,19785.15625,-5088,3.119558553,-11888,-7.2887798896,-16400,10.0551808706,79,11.0365853659,-181,-4.8170731707,867,-52.8658536585,-40,0.1739130435,49,0.2130434783,99,-0.4829268293
4333214,19804.6875,-6400,3.9239730227,-12256,-7.5144083384,-17376,10.6535867566,79,11.0365853659,-181,-4.8170731707,867,-52.8658536585,-38,0.1652173913,44,0.1913043478,99,-0.4829268293
4333854,19824.21875,-7824,4.7970570202,-12672,-7.7694665849,-18544,11.3697118332,405,23.2317073171,-381,-24.6951219512,1024,-62.4390243902,-35,0.152173913,42,0.1826086957,101,-0.4926829268
4334494,19843.75,-9056,5.5524218271,-13184,-8.0833844267,-19552,11.9877375843,405,23.2317073171,-381,-24.6951219512,1024,-62.4390243902,-35,0.152173913,44,0.1913043478,100,-0.487804878
4335134,19863.28125,-9824,6.0232985898,-13584,-8.3286327406,-19808,12.1446965052,543,39.4512195122,-647,-33.1097560976,1210,-73.7804878049,-30,0.1304347826,42,0.1826086957,99,-0.4829268293
4335774,19882.8125,-10384,6.3666462293,-13904,-8.5248313918,-19760,12.1152667075,549,55.6707317073,-913,-33.4756097561,1389,-84.6951219512,-29,0.1260869565,45,0.1956521739,99,-0.4829268293
4336414,19902.34375,-10688,6.5530349479,-14240,-8.7308399755,-19232,11.7915389332,549,55.6707317073,-913,-33.4756097561,1389,-84.6951219512,-27,0.1173913043,41,0.1782608696,101,-0.4926829268
4337054,19921.875,-9840,6.0331085224,-14560,-8.9270386266,-18192,11.153893317,346,70.6097560976,-1158,-21.0975609756,1529,-93.2317073171,-26,0.1130434783,39,0.1695652174,102,-0.4975609756
4337694,19941.40625,-8896,5.4543225015,-14048,-8.6131207848,-17312,10.6143470264,346,70.6097560976,-1158,-21.0975609756,1529,-93.2317073171,-22,0.0956521739,39,0.1695652174,102,-0.4975609756
4338334,19960.9375,-8512,5.2188841202,-13472,-8.2599632128,-16384,10.0453709381,519,78.6585365854,-1290,-31.6463414634,1659,-101.1585365854,-18,0.0782608696,30,0.1304347826,107,-0.5219512195
4338974,19980.46875,-8128,4.9834457388,-13200,-8.0931943593,-15376,9.427345187,654,74.6341463415,-1224,-39.8780487805,1837,-112.012195122,-16,0.0695652174,35,0.152173913,106,-0.5170731707
4339614,20000,-6992,4.2869405273,-12832,-7.8675659105,-14416,8.8387492336,654,74.6341463415,-1224,-39.8780487805,1837,-112.012195122,-8,0.0347826087,24,0.1043478261,108,-0.5268292683
4340254,20019.53125,-6784,4.159411404,-12048,-7.3868792152,-13296,8.1520539546,887,69.0853658537,-1133,-54.0853658537,1945,-118.5975609756,-8,0.0347826087,21,0.0913043478,108,-0.5268292683
4340894,20039.0625,-7040,4.316370325,-10976,-6.7296137339,-12128,7.435928878,855,56.0975609756,-920,-52.1341463415,2092,-127.5609756098,-2,0.0086956522,18,0.0782608696,108,-0.5268292683
4341534,20058.59375,-6448,3.9534028204,-10432,-6.396076027,-11440,7.0141017781,855,56.0975609756,-920,-52.1341463415,2092,-127.5609756098,2,-0.0086956522,12,0.052173913,107,-0.5219512195
4342174,20078.125,-4256,2.6094420601,-9216,-5.6505211527,-10496,6.4353157572,1127,38.4146341463,-630,-68.7195121951,2127,-129.6951219512,7,-0.0304347826,7,0.0304347826,107,-0.5219512195
4342814,20097.65625,-4128,2.5309625996,-8000,-4.9049662784,-10976,6.7296137339,1127,38.4146341463,-630,-68.7195121951,2127,-129.6951219512,8,-0.0347826087,7,0.0304347826,105,-0.512195122
4343454,20117.1875,-5584,3.4236664623,-7456,-4.5714285714,-10720,6.572654813,1625,14.3902439024,-236,-99.0853658537,2243,-136.7682926829,12,-0.052173913,1,0.0043478261,102,-0.4975609756
4344094,20136.71875,-7008,4.2967504598,-6720,-4.1201716738,-10096,6.1900674433,1449,-7.3780487805,121,-88.3536585366,2276,-138.7804878049,16,-0.0695652174,-5,-0.0217391304,101,-0.4926829268
4344734,20156.25,-7440,4.5616186389,-5744,-3.5217657879,-10064,6.1704475782,1449,-7.3780487805,121,-88.3536585366,2276,-138.7804878049,20,-0.0869565217,-12,-0.052173913,97,-0.4731707317
4345374,20175.78125,-7520,4.6106683017,-5328,-3.2667075414,-10608,6.5039852851,1294,-23.6585365854,388,-78.9024390244,2329,-142.012195122,19,-0.0826086957,-11,-0.047826087,94,-0.4585365854
4346014,20195.3125,-7744,4.7480073574,-5584,-3.4236664623,-11200,6.8669527897,1294,-23.6585365854,388,-78.9024390244,2329,-142.012195122,22,-0.0956521739,-15,-0.0652173913,89,-0.4341463415
4346654,20214.84375,-8048,4.934396076,-5456,-3.3451870018,-11184,6.8571428571,1082,-30.7317073171,504,-65.9756097561,2347,-143.1097560976,25,-0.1086956522,-16,-0.0695652174,88,-0.4292682927
4347294,20234.375,-8368,5.1305947272,-4848,-2.9724095647,-10896,6.6805640711,873,-36.1585365854,593,-53.2317073171,2354,-143.5365853659,28,-0.1217391304,-29,-0.1260869565,87,-0.4243902439
4347934,20253.90625,-8640,5.2973635806,-4448,-2.7271612508,-11344,6.9552421827,873,-36.1585365854,593,-53.2317073171,2354,-143.5365853659,28,-0.1217391304,-28,-0.1217391304,83,-0.4048780488
4348574,20273.4375,-9088,5.5720416922,-4496,-2.7565910484,-11840,7.259350092,749,-38.2926829268,628,-45.6707317073,2381,-145.1829268293,30,-0.1304347826,-36,-0.1565217391,83,-0.4048780488
4349214,20292.96875,-9760,5.9840588596,-3856,-2.3641937462,-11696,7.171060699,749,-38.2926829268,628,-45.6707317073,2381,-145.1829268293,30,-0.1304347826,-39,-0.1695652174,80,-0.3902439024
4349854,20312.5,-9616,5.8957694666,-3200,-1.9619865113,-11456,7.0239117106,366,-37.1341463415,609,-22.3170731707,2361,-143.9634146341,31,-0.1347826087,-48,-0.2086956522,82,-0.4
4350494,20332.03125,-9056,5.5524218271,-2800,-1.7167381974,-11888,7.2887798896,141,-37.987804878,623,-8.5975609756,2328,-141.9512195122,28,-0.1217391304,-47,-0.2043478261,80,-0.3902439024
4351134,20351.5625,-8768,5.3758430411,-2576,-1.5793991416,-12256,7.5144083384,141,-37.987804878,623,-8.5975609756,2328,-141.9512195122,32,-0.1391304348,-59,-0.2565217391,82,-0.4
4351774,20371.09375,-9152,5.6112814224,-1904,-1.1673819742,-12272,7.524218271,85,-34.756097561,570,-5.1829268293,2273,-138.5975609756,30,-0.1304347826,-63,-0.2739130435,82,-0.4
4352414,20390.625,-9056,5.5524218271,-1200,-0.7357449418,-12496,7.6615573268,9,-33.4146341463,548,-0.5487804878,2214,-135,29,-0.1260869565,-65,-0.2826086957,81,-0.3951219512
4353054,20410.15625,-8336,5.110974862,-896,-0.5493562232,-13024,7.9852851012,9,-33.4146341463,548,-0.5487804878,2214,-135,28,-0.1217391304,-67,-0.2913043478,81,-0.3951219512
4353694,20429.6875,-8720,5.3464132434,-368,-0.2256284488,-13072,8.0147148988,113,-29.3902439024,482,-6.8902439024,2143,-130.6707317073,26,-0.1130434783,-74,-0.3217391304,80,-0.3902439024
4354334,20449.21875,-8592,5.267933783,256,0.1569589209,-12944,7.9362354384,113,-29.3902439024,482,-6.8902439024,2143,-130.6707317073,26,-0.1130434783,-78,-0.3391304348,82,-0.4
4354974,20468.75,-7824,4.7970570202,576,0.353157572,-13120,8.0441446965,23,-25.9756097561,426,-1.4024390244,2023,-123.3536585366,24,-0.1043478261,-84,-0.3652173913,85,-0.4146341463
4355614,20488.28125,-7824,4.7970570202,1040,0.6376456162,-13040,7.9950950337,120,-20.7317073171,340,-7.3170731707,1930,-117.6829268293,24,-0.1043478261,-90,-0.3913043478,84,-0.4097560976
4356254,20507.8125,-8160,5.0030656039,1824,1.1183323115,-12800,7.8479460454,120,-20.7317073171,340,-7.3170731707,1930,-117.6829268293,22,-0.0956521739,-95,-0.4130434783,85,-0.4146341463
4356894,20527.34375,-7776,4.7676272226,2592,1.5892090742,-12960,7.9460453709,-17,-15.4268292683,253,1.0365853659,1777,-108.3536585366,21,-0.0913043478,-98,-0.4260869565,83,-0.4048780488
