Shimmer,Shimmer,Shimmer,Shimmer,Shimmer,Shimmer,Shimmer,Shimmer,Shimmer,Shimmer,Shimmer,Shimmer,Shimmer,Shimmer,Shimmer,Shimmer,Shimmer,Shimmer,Shimmer,Shimmer
Timestamp,Timestamp,Wide Range Accelerometer X,Wide Range Accelerometer X,Wide Range Accelerometer Y,Wide Range Accelerometer Y,Wide Range Accelerometer Z,Wide Range Accelerometer Z,Gyroscope X,Gyroscope X,Gyroscope Y,Gyroscope Y,Gyroscope Z,Gyroscope Z,Magnetometer X,Magnetometer X,Magnetometer Y,Magnetometer Y,Magnetometer Z,Magnetometer Z
RAW,CAL,RAW,CAL,RAW,CAL,RAW,CAL,RAW,CAL,RAW,CAL,RAW,CAL,RAW,CAL,RAW,CAL,RAW,CAL
no units,mSecs,no units,m/(sec^2),no units,m/(sec^2),no units,m/(sec^2),no units,deg/sec,no units,deg/sec,no units,deg/sec,no units,local,no units,local,no units,local
12820510,15546.875,-3008,1.8442673207,672,0.4120171674,-15952,9.780502759,4,3.1707317073,-52,-0.243902439,-2,0.1219512195,2,-0.0086956522,-45,-0.1956521739,142,-0.6926829268
12821150,15566.40625,-2928,1.7952176579,576,0.353157572,-15888,9.7412630288,4,3.1707317073,-52,-0.243902439,-2,0.1219512195,1,-0.0043478261,-46,-0.2,141,-0.687804878
12821790,15585.9375,-3088,1.8933169834,672,0.4120171674,-15904,9.7510729614,13,3.1097560976,-51,-0.7926829268,-1,0.0609756098,0,0,-39,-0.1695652174,140,-0.6829268293
12822430,15605.46875,-3040,1.8638871858,672,0.4120171674,-16000,9.8099325567,13,3.1097560976,-51,-0.7926829268,-1,0.0609756098,1,-0.0043478261,-44,-0.1913043478,140,-0.6829268293
12823070,15625,-3024,1.8540772532,640,0.3923973023,-15968,9.7903126916,1,3.5975609756,-59,-0.0609756098,1,-0.0609756098,2,-0.0086956522,-40,-0.1739130435,140,-0.6829268293
12823710,15644.53125,-3200,1.9619865113,624,0.3825873697,-15840,9.7118332311,12,3.7195121951,-61,-0.7317073171,4,-0.243902439,3,-0.0130434783,-45,-0.1956521739,139,-0.6780487805
12824350,15664.0625,-3168,1.9423666462,704,0.4316370325,-15872,9.7314530963,12,3.7195121951,-61,-0.7317073171,4,-0.243902439,2,-0.0086956522,-41,-0.1782608696,140,-0.6829268293
12824990,15683.59375,-3040,1.8638871858,624,0.3825873697,-15840,9.7118332311,-4,3.6585365854,-60,0.243902439,4,-0.243902439,1,-0.0043478261,-45,-0.1956521739,141,-0.687804878
12825630,15703.125,-3152,1.9325567137,688,0.4218270999,-15792,9.6824034335,19,3.4756097561,-57,-1.1585365854,17,-1.0365853659,2,-0.0086956522,-47,-0.2043478261,142,-0.6926829268
12826270,15722.65625,-3136,1.9227467811,704,0.4316370325,-15776,9.6725935009,19,3.4756097561,-57,-1.1585365854,17,-1.0365853659,2,-0.0086956522,-42,-0.1826086957,140,-0.6829268293
12826910,15742.1875,-3088,1.8933169834,688,0.4218270999,-15824,9.7020232986,-3,3.2926829268,-54,0.1829268293,17,-1.0365853659,1,-0.0043478261,-43,-0.1869565217,141,-0.687804878
12827550,15761.71875,-2992,1.8344573881,640,0.3923973023,-15920,9.7608828939,-3,3.2926829268,-54,0.1829268293,17,-1.0365853659,1,-0.0043478261,-43,-0.1869565217,141,-0.687804878
12828190,15781.25,-3088,1.8933169834,640,0.3923973023,-15856,9.7216431637,15,3.3536585366,-55,-0.9146341463,19,-1.1585365854,2,-0.0086956522,-47,-0.2043478261,141,-0.687804878
12828830,15800.78125,-3072,1.8835070509,752,0.4610668302,-15856,9.7216431637,-6,3.4146341463,-56,0.3658536585,14,-0.8536585366,-1,0.0043478261,-41,-0.1782608696,140,-0.6829268293
12829470,15820.3125,-2944,1.8050275904,816,0.5003065604,-15840,9.7118332311,-6,3.4146341463,-56,0.3658536585,14,-0.8536585366,1,-0.0043478261,-40,-0.1739130435,139,-0.6780487805
12830110,15839.84375,-2976,1.8246474555,752,0.4610668302,-15904,9.7510729614,-13,3.5975609756,-59,0.7926829268,9,-0.5487804878,1,-0.0043478261,-40,-0.1739130435,139,-0.6780487805
12830750,15859.375,-2960,1.814837523,784,0.4806866953,-15824,9.7020232986,-13,3.5975609756,-59,0.7926829268,9,-0.5487804878,2,-0.0086956522,-41,-0.1782608696,140,-0.6829268293
12831390,15878.90625,-3104,1.903126916,736,0.4512568976,-15872,9.7314530963,0,3.9024390244,-64,0,7,-0.4268292683,1,-0.0043478261,-45,-0.1956521739,142,-0.6926829268
12832030,15898.4375,-3008,1.8442673207,752,0.4610668302,-15824,9.7020232986,-14,4.1463414634,-68,0.8536585366,3,-0.1829268293,3,-0.0130434783,-46,-0.2,139,-0.6780487805
12832670,15917.96875,-2992,1.8344573881,752,0.4610668302,-15760,9.6627835684,-14,4.1463414634,-68,0.8536585366,3,-0.1829268293,0,0,-43,-0.1869565217,140,-0.6829268293
12833310,15937.5,-2944,1.8050275904,736,0.4512568976,-15824,9.7020232986,0,4.0243902439,-66,0,5,-0.3048780488,0,0,-43,-0.1869565217,138,-0.6731707317
12833950,15957.03125,-2896,1.7755977928,768,0.4708767627,-15744,9.6529736358,0,4.0243902439,-66,0,5,-0.3048780488,1,-0.0043478261,-43,-0.1869565217,139,-0.6780487805
12834590,15976.5625,-3120,1.9129368486,816,0.5003065604,-15712,9.6333537707,12,3.7195121951,-61,-0.7317073171,3,-0.1829268293,1,-0.0043478261,-40,-0.1739130435,140,-0.6829268293
12835230,15996.09375,-3136,1.9227467811,816,0.5003065604,-15776,9.6725935009,-11,3.5365853659,-58,0.6707317073,3,-0.1829268293,4,-0.0173913043,-47,-0.2043478261,141,-0.687804878
12835870,16015.625,-3056,1.8736971183,864,0.5297363581,-15760,9.6627835684,-11,3.5365853659,-58,0.6707317073,3,-0.1829268293,2,-0.0086956522,-48,-0.2086956522,142,-0.6926829268
12836510,16035.15625,-3040,1.8638871858,944,0.5787860208,-15760,9.6627835684,0,3.3536585366,-55,0,8,-0.487804878,3,-0.0130434783,-45,-0.1956521739,139,-0.6780487805
12837150,16054.6875,-3088,1.8933169834,832,0.5101164929,-15744,9.6529736358,3,3.2926829268,-54,-0.1829268293,5,-0.3048780488,1,-0.0043478261,-43,-0.1869565217,140,-0.6829268293
12837790,16074.21875,-3088,1.8933169834,928,0.5689760883,-15760,9.6627835684,3,3.2926829268,-54,-0.1829268293,5,-0.3048780488,3,-0.0130434783,-50,-0.2173913043,142,-0.6926829268
12838430,16093.75,-2992,1.8344573881,880,0.5395462906,-15712,9.6333537707,-15,3.2926829268,-54,0.9146341463,0,0,2,-0.0086956522,-45,-0.1956521739,141,-0.687804878
12839070,16113.28125,-3008,1.8442673207,912,0.5591661557,-15760,9.6627835684,-15,3.2926829268,-54,0.9146341463,0,0,3,-0.0130434783,-45,-0.1956521739,142,-0.6926829268
12839710,16132.8125,-3024,1.8540772532,896,0.5493562232,-15696,9.6235438381,-6,3.0487804878,-50,0.3658536585,2,-0.1219512195,4,-0.0173913043,-47,-0.2043478261,140,-0.6829268293
12840350,16152.34375,-3008,1.8442673207,864,0.5297363581,-15712,9.6333537707,-5,2.9268292683,-48,0.3048780488,3,-0.1829268293,2,-0.0086956522,-48,-0.2086956522,143,-0.6975609756
12840990,16171.875,-2960,1.814837523,864,0.5297363581,-15776,9.6725935009,-5,2.9268292683,-48,0.3048780488,3,-0.1829268293,2,-0.0086956522,-47,-0.2043478261,140,-0.6829268293
12841630,16191.40625,-2992,1.8344573881,800,0.4904966278,-15744,9.6529736358,0,2.6219512195,-43,0,1,-0.0609756098,3,-0.0130434783,-45,-0.1956521739,141,-0.687804878
12842270,16210.9375,-3024,1.8540772532,832,0.5101164929,-15744,9.6529736358,0,2.6219512195,-43,0,1,-0.0609756098,3,-0.0130434783,-43,-0.1869565217,141,-0.687804878
12842910,16230.46875,-2912,1.7854077253,832,0.5101164929,-15776,9.6725935009,-11,2.8048780488,-46,0.6707317073,-3,0.1829268293,4,-0.0173913043,-44,-0.1913043478,140,-0.6829268293
12843550,16250,-2896,1.7755977928,800,0.4904966278,-15648,9.5941140405,26,2.5,-41,-1.5853658537,4,-0.243902439,2,-0.0086956522,-46,-0.2,141,-0.687804878
12844190,16269.53125,-3072,1.8835070509,928,0.5689760883,-15792,9.6824034335,26,2.5,-41,-1.5853658537,4,-0.243902439,4,-0.0173913043,-46,-0.2,141,-0.687804878
12844830,16289.0625,-2944,1.8050275904,832,0.5101164929,-15776,9.6725935009,-1,2.6219512195,-43,0.0609756098,-2,0.1219512195,1,-0.0043478261,-49,-0.2130434783,142,-0.6926829268
12845470,16308.59375,-2944,1.8050275904,864,0.5297363581,-15888,9.7412630288,-1,2.6219512195,-43,0.0609756098,-2,0.1219512195,2,-0.0086956522,-46,-0.2,141,-0.687804878
12846110,16328.125,-2896,1.7755977928,768,0.4708767627,-15904,9.7510729614,-9,2.743902439,-45,0.5487804878,-9,0.5487804878,2,-0.0086956522,-43,-0.1869565217,140,-0.6829268293
12846750,16347.65625,-3040,1.8638871858,784,0.4806866953,-15888,9.7412630288,-2,2.6829268293,-44,0.1219512195,-12,0.7317073171,2,-0.0086956522,-48,-0.2086956522,141,-0.687804878
12847390,16367.1875,-2992,1.8344573881,800,0.4904966278,-15808,9.692213366,-2,2.6829268293,-44,0.1219512195,-12,0.7317073171,1,-0.0043478261,-43,-0.1869565217,140,-0.6829268293
12848030,16386.71875,-2944,1.8050275904,864,0.5297363581,-15776,9.6725935009,5,2.6219512195,-43,-0.3048780488,-9,0.5487804878,3,-0.0130434783,-44,-0.1913043478,139,-0.6780487805
12848670,16406.25,-2912,1.7854077253,752,0.4610668302,-15856,9.7216431637,-8,2.3780487805,-39,0.487804878,-15,0.9146341463,0,0,-44,-0.1913043478,141,-0.687804878
12849310,16425.78125,-3008,1.8442673207,784,0.4806866953,-15888,9.7412630288,-8,2.3780487805,-39,0.487804878,-15,0.9146341463,3,-0.0130434783,-46,-0.2,141,-0.687804878
12849950,16445.3125,-2944,1.8050275904,720,0.4414469651,-15888,9.7412630288,-17,2.5609756098,-42,1.0365853659,-11,0.6707317073,3,-0.0130434783,-45,-0.1956521739,141,-0.687804878
12850590,16464.84375,-2912,1.7854077253,672,0.4120171674,-15808,9.692213366,-17,2.5609756098,-42,1.0365853659,-11,0.6707317073,4,-0.0173913043,-49,-0.2130434783,142,-0.6926829268
12851230,16484.375,-3008,1.8442673207,704,0.4316370325,-15744,9.6529736358,-12,2.743902439,-45,0.7317073171,-15,0.9146341463,3,-0.0130434783,-47,-0.2043478261,142,-0.6926829268
12851870,16503.90625,-2976,1.8246474555,736,0.4512568976,-15824,9.7020232986,-25,2.8048780488,-46,1.5243902439,-25,1.5243902439,0,0,-44,-0.1913043478,141,-0.687804878
12852510,16523.4375,-2960,1.814837523,720,0.4414469651,-15888,9.7412630288,-25,2.8048780488,-46,1.5243902439,-25,1.5243902439,4,-0.0173913043,-45,-0.1956521739,141,-0.687804878
12853150,16542.96875,-2976,1.8246474555,720,0.4414469651,-15808,9.692213366,-7,2.6829268293,-44,0.4268292683,-20,1.2195121951,2,-0.0086956522,-45,-0.1956521739,140,-0.6829268293
12853790,16562.5,-3104,1.903126916,800,0.4904966278,-15952,9.780502759,-7,2.6829268293,-44,0.4268292683,-20,1.2195121951,2,-0.0086956522,-47,-0.2043478261,142,-0.6926829268
12854430,16582.03125,-3056,1.8736971183,752,0.4610668302,-15856,9.7216431637,-6,2.9268292683,-48,0.3658536585,-21,1.2804878049,3,-0.0130434783,-47,-0.2043478261,142,-0.6926829268
12855070,16601.5625,-3104,1.903126916,720,0.4414469651,-15840,9.7118332311,2,3.1707317073,-52,-0.1219512195,-15,0.9146341463,4,-0.0173913043,-48,-0.2086956522,142,-0.6926829268
12855710,16621.09375,-3216,1.9717964439,720,0.4414469651,-15792,9.6824034335,2,3.1707317073,-52,-0.1219512195,-15,0.9146341463,2,-0.0086956522,-48,-0.2086956522,143,-0.6975609756
12856350,16640.625,-3056,1.8736971183,704,0.4316370325,-15824,9.7020232986,10,2.9268292683,-48,-0.6097560976,-16,0.9756097561,3,-0.0130434783,-44,-0.1913043478,140,-0.6829268293
12856990,16660.15625,-3152,1.9325567137,704,0.4316370325,-15872,9.7314530963,-10,2.5,-41,0.6097560976,-13,0.7926829268,4,-0.0173913043,-49,-0.2130434783,141,-0.687804878
12857630,16679.6875,-3104,1.903126916,752,0.4610668302,-15840,9.7118332311,-10,2.5,-41,0.6097560976,-13,0.7926829268,1,-0.0043478261,-47,-0.2043478261,141,-0.687804878
12858270,16699.21875,-3184,1.9521765788,752,0.4610668302,-15728,9.6431637032,7,2.1951219512,-36,-0.4268292683,3,-0.1829268293,3,-0.0130434783,-42,-0.1826086957,142,-0.6926829268
12858910,16718.75,-3120,1.9129368486,704,0.4316370325,-15712,9.6333537707,7,2.1951219512,-36,-0.4268292683,3,-0.1829268293,2,-0.0086956522,-43,-0.1869565217,142,-0.6926829268
12859550,16738.28125,-3056,1.8736971183,624,0.3825873697,-15824,9.7020232986,5,2.3170731707,-38,-0.3048780488,10,-0.6097560976,4,-0.0173913043,-48,-0.2086956522,142,-0.6926829268
12860190,16757.8125,-3056,1.8736971183,720,0.4414469651,-15872,9.7314530963,2,2.1341463415,-35,-0.1219512195,3,-0.1829268293,2,-0.0086956522,-43,-0.1869565217,141,-0.687804878
12860830,16777.34375,-2960,1.814837523,720,0.4414469651,-15840,9.7118332311,2,2.1341463415,-35,-0.1219512195,3,-0.1829268293,3,-0.0130434783,-43,-0.1869565217,142,-0.6926829268
12861470,16796.875,-2944,1.8050275904,672,0.4120171674,-15824,9.7020232986,17,2.5,-41,-1.0365853659,6,-0.3658536585,1,-0.0043478261,-45,-0.1956521739,141,-0.687804878
12862110,16816.40625,-3008,1.8442673207,688,0.4218270999,-15888,9.7412630288,17,2.5,-41,-1.0365853659,6,-0.3658536585,3,-0.0130434783,-47,-0.2043478261,141,-0.687804878
12862750,16835.9375,-3168,1.9423666462,672,0.4120171674,-15936,9.7706928265,29,2.5,-41,-1.7682926829,7,-0.4268292683,1,-0.0043478261,-48,-0.2086956522,141,-0.687804878
12863390,16855.46875,-3168,1.9423666462,624,0.3825873697,-15904,9.7510729614,4,2.5609756098,-42,-0.243902439,3,-0.1829268293,4,-0.0173913043,-44,-0.1913043478,141,-0.687804878
12864030,16875,-3040,1.8638871858,624,0.3825873697,-16000,9.8099325567,4,2.5609756098,-42,-0.243902439,3,-0.1829268293,2,-0.0086956522,-48,-0.2086956522,142,-0.6926829268
12864670,16894.53125,-3024,1.8540772532,640,0.3923973023,-16032,9.8295524218,-1,2.6829268293,-44,0.0609756098,4,-0.243902439,1,-0.0043478261,-45,-0.1956521739,139,-0.6780487805
12865310,16914.0625,-3072,1.8835070509,624,0.3825873697,-15936,9.7706928265,-1,2.6829268293,-44,0.0609756098,4,-0.243902439,0,0,-47,-0.2043478261,140,-0.6829268293
12865950,16933.59375,-3088,1.8933169834,656,0.4022072348,-15968,9.7903126916,0,3.1097560976,-51,0,10,-0.6097560976,0,0,-48,-0.2086956522,140,-0.6829268293
12866590,16953.125,-2976,1.8246474555,704,0.4316370325,-15920,9.7608828939,-16,3.4756097561,-57,0.9756097561,6,-0.3658536585,2,-0.0086956522,-44,-0.1913043478,141,-0.687804878
12867230,16972.65625,-2848,1.7461679951,688,0.4218270999,-15808,9.692213366,-16,3.4756097561,-57,0.9756097561,6,-0.3658536585,1,-0.0043478261,-43,-0.1869565217,140,-0.6829268293
12867870,16992.1875,-2992,1.8344573881,736,0.4512568976,-15808,9.692213366,-11,3.5975609756,-59,0.6707317073,-3,0.1829268293,1,-0.0043478261,-44,-0.1913043478,141,-0.687804878
12868510,17011.71875,-2976,1.8246474555,816,0.5003065604,-15808,9.692213366,-16,3.7195121951,-61,0.9756097561,-8,0.487804878,1,-0.0043478261,-40,-0.1739130435,140,-0.6829268293
12869150,17031.25,-2960,1.814837523,752,0.4610668302,-15824,9.7020232986,-16,3.7195121951,-61,0.9756097561,-8,0.487804878,3,-0.0130434783,-46,-0.2,141,-0.687804878
12869790,17050.78125,-2992,1.8344573881,720,0.4414469651,-15648,9.5941140405,0,3.4756097561,-57,0,-7,0.4268292683,0,0,-47,-0.2043478261,140,-0.6829268293
12870430,17070.3125,-2992,1.8344573881,720,0.4414469651,-15648,9.5941140405,0,3.4756097561,-57,0,-7,0.4268292683,2,-0.0086956522,-46,-0.2,139,-0.6780487805
12871070,17089.84375,-3040,1.8638871858,720,0.4414469651,-15696,9.6235438381,14,2.8658536585,-47,-0.8536585366,-4,0.243902439,4,-0.0173913043,-48,-0.2086956522,142,-0.6926829268
12871710,17109.375,-3104,1.903126916,672,0.4120171674,-15760,9.6627835684,1,2.6829268293,-44,-0.0609756098,-3,0.1829268293,1,-0.0043478261,-43,-0.1869565217,139,-0.6780487805
12872350,17128.90625,-2960,1.814837523,640,0.3923973023,-15808,9.692213366,1,2.6829268293,-44,-0.0609756098,-3,0.1829268293,0,0,-44,-0.1913043478,141,-0.687804878
12872990,17148.4375,-2912,1.7854077253,704,0.4316370325,-15728,9.6431637032,9,2.5609756098,-42,-0.5487804878,-4,0.243902439,1,-0.0043478261,-41,-0.1782608696,140,-0.6829268293
12873630,17167.96875,-2864,1.7559779277,704,0.4316370325,-15840,9.7118332311,9,2.5609756098,-42,-0.5487804878,-4,0.243902439,1,-0.0043478261,-48,-0.2086956522,141,-0.687804878
12874270,17187.5,-3008,1.8442673207,656,0.4022072348,-15760,9.6627835684,18,2.3780487805,-39,-1.0975609756,-6,0.3658536585,1,-0.0043478261,-47,-0.2043478261,139,-0.6780487805
12874910,17207.03125,-3088,1.8933169834,720,0.4414469651,-15824,9.7020232986,-9,2.5,-41,0.5487804878,-8,0.487804878,2,-0.0086956522,-47,-0.2043478261,139,-0.6780487805
12875550,17226.5625,-2976,1.8246474555,736,0.4512568976,-15920,9.7608828939,-9,2.5,-41,0.5487804878,-8,0.487804878,0,0,-41,-0.1782608696,139,-0.6780487805
12876190,17246.09375,-2928,1.7952176579,752,0.4610668302,-15968,9.7903126916,-9,2.8658536585,-47,0.5487804878,-12,0.7317073171,2,-0.0086956522,-43,-0.1869565217,141,-0.687804878
12876830,17265.625,-2912,1.7854077253,752,0.4610668302,-15920,9.7608828939,-9,2.8658536585,-47,0.5487804878,-12,0.7317073171,2,-0.0086956522,-44,-0.1913043478,142,-0.6926829268
12877470,17285.15625,-5536,3.3942366646,1760,1.0790925812,-23408,14.3519313305,16,2.987804878,-49,-0.9756097561,-9,0.5487804878,3,-0.0130434783,-46,-0.2,143,-0.6975609756
12878110,17304.6875,-4688,2.8743102391,2256,1.3832004905,-17152,10.5162477008,1538,-60.6097560976,994,-93.7804878049,-11,0.6707317073,5,-0.0217391304,-36,-0.1565217391,136,-0.6634146341
12878750,17324.21875,-13856,8.4954015941,1456,0.8927038627,-18928,11.6051502146,1538,-60.6097560976,994,-93.7804878049,-11,0.6707317073,6,-0.0260869565,-41,-0.1782608696,136,-0.6634146341
12879390,17343.75,-10112,6.1998773758,1280,0.7847946045,-19120,11.7228694053,-1585,48.7195121951,-799,96.6463414634,228,-13.9024390244,-1,0.0043478261,-42,-0.1826086957,138,-0.6731707317
12880030,17363.28125,4736,-2.9037400368,-960,-0.5885959534,-13904,8.5248313918,-164,-4.2073170732,69,10,-170,10.3658536585,1,-0.0043478261,-41,-0.1782608696,140,-0.6829268293
12880670,17382.8125,-1456,0.8927038627,1312,0.8044144697,-15696,9.6235438381,-164,-4.2073170732,69,10,-170,10.3658536585,2,-0.0086956522,-42,-0.1826086957,141,-0.687804878
12881310,17402.34375,-4112,2.5211526671,-752,-0.4610668302,-16976,10.4083384427,16,-2.8048780488,46,-0.9756097561,35,-2.1341463415,0,0,-38,-0.1652173913,141,-0.687804878
12881950,17421.875,-3120,1.9129368486,112,0.0686695279,-17120,10.4966278357,16,-2.8048780488,46,-0.9756097561,35,-2.1341463415,3,-0.0130434783,-42,-0.1826086957,141,-0.687804878
12882590,17441.40625,-3456,2.1189454323,-64,-0.0392397302,-17632,10.8105456775,154,-1.2804878049,21,-9.3902439024,9,-0.5487804878,2,-0.0086956522,-44,-0.1913043478,142,-0.6926829268
12883230,17460.9375,-3408,2.0895156346,16,0.0098099326,-17744,10.8792152054,-106,5.3658536585,-88,6.4634146341,-47,2.8658536585,1,-0.0043478261,-46,-0.2,142,-0.6926829268
12883870,17480.46875,-3232,1.9816063765,-64,-0.0392397302,-17376,10.6535867566,-106,5.3658536585,-88,6.4634146341,-47,2.8658536585,3,-0.0130434783,-46,-0.2,141,-0.687804878
12884510,17500,-2944,1.8050275904,-160,-0.0980993256,-16832,10.3200490497,-91,8.1097560976,-133,5.5487804878,-47,2.8658536585,1,-0.0043478261,-46,-0.2,142,-0.6926829268
12885150,17519.53125,-2528,1.549969344,0,0,-16400,10.0551808706,-91,8.1097560976,-133,5.5487804878,-47,2.8658536585,1,-0.0043478261,-43,-0.1869565217,141,-0.687804878
12885790,17539.0625,-2960,1.814837523,96,0.0588595953,-16224,9.9472716125,69,7.9268292683,-130,-4.2073170732,-25,1.5243902439,0,0,-40,-0.1739130435,141,-0.687804878
12886430,17558.59375,-3392,2.079705702,240,0.1471489884,-16128,9.8884120172,67,8.5975609756,-141,-4.0853658537,-13,0.7926829268,1,-0.0043478261,-41,-0.1782608696,141,-0.687804878
12887070,17578.125,-3440,2.1091354997,336,0.2060085837,-15856,9.7216431637,67,8.5975609756,-141,-4.0853658537,-13,0.7926829268,1,-0.0043478261,-42,-0.1826086957,140,-0.6829268293
12887710,17597.65625,-3216,1.9717964439,304,0.1863887186,-15520,9.51563458,-28,8.2926829268,-136,1.7073170732,-6,0.3658536585,2,-0.0086956522,-40,-0.1739130435,142,-0.6926829268
12888350,17617.1875,-3104,1.903126916,288,0.176578786,-15456,9.4763948498,-28,8.2926829268,-136,1.7073170732,-6,0.3658536585,2,-0.0086956522,-46,-0.2,143,-0.6975609756
12888990,17636.71875,-3072,1.8835070509,416,0.2550582465,-15328,9.3979153893,-31,7.1951219512,-118,1.8902439024,-2,0.1219512195,2,-0.0086956522,-43,-0.1869565217,141,-0.687804878
12889630,17656.25,-2832,1.7363580625,448,0.2746781116,-15472,9.4862047823,-4,5.3658536585,-88,0.243902439,3,-0.1829268293,0,0,-43,-0.1869565217,141,-0.687804878
12890270,17675.78125,-2848,1.7461679951,384,0.2354383814,-15424,9.4567749847,-4,5.3658536585,-88,0.243902439,3,-0.1829268293,3,-0.0130434783,-43,-0.1869565217,141,-0.687804878
12890910,17695.3125,-3088,1.8933169834,496,0.3041079093,-15376,9.427345187,13,4.5731707317,-75,-0.7926829268,14,-0.8536585366,2,-0.0086956522,-40,-0.1739130435,141,-0.687804878
12891550,17714.84375,-3008,1.8442673207,528,0.3237277744,-15312,9.3881054568,-15,3.9634146341,-65,0.9146341463,6,-0.3658536585,1,-0.0043478261,-40,-0.1739130435,139,-0.6780487805
12892190,17734.375,-2816,1.72654813,432,0.264868179,-15344,9.4077253219,-15,3.9634146341,-65,0.9146341463,6,-0.3658536585,3,-0.0130434783,-43,-0.1869565217,140,-0.6829268293
12892830,17753.90625,-2848,1.7461679951,432,0.264868179,-15392,9.4371551196,26,2.8048780488,-46,-1.5853658537,-1,0.0609756098,2,-0.0086956522,-44,-0.1913043478,141,-0.687804878
12893470,17773.4375,-3008,1.8442673207,544,0.3335377069,-15600,9.5646842428,26,2.8048780488,-46,-1.5853658537,-1,0.0609756098,1,-0.0043478261,-46,-0.2,142,-0.6926829268
12894110,17792.96875,-2928,1.7952176579,416,0.2550582465,-15536,9.5254445126,8,1.6463414634,-27,-0.487804878,-3,0.1829268293,2,-0.0086956522,-47,-0.2043478261,142,-0.6926829268
12894750,17812.5,-2944,1.8050275904,384,0.2354383814,-15616,9.5744941754,1,1.2804878049,-21,-0.0609756098,3,-0.1829268293,0,0,-46,-0.2,140,-0.6829268293
12895390,17832.03125,-3040,1.8638871858,432,0.264868179,-15632,9.5843041079,1,1.2804878049,-21,-0.0609756098,3,-0.1829268293,3,-0.0130434783,-47,-0.2043478261,141,-0.687804878
12896030,17851.5625,-2960,1.814837523,416,0.2550582465,-15792,9.6824034335,-8,1.4634146341,-24,0.487804878,-4,0.243902439,0,0,-42,-0.1826086957,141,-0.687804878
12896670,17871.09375,-2912,1.7854077253,368,0.2256284488,-15776,9.6725935009,-8,1.4634146341,-24,0.487804878,-4,0.243902439,2,-0.0086956522,-41,-0.1782608696,143,-0.6975609756
12897310,17890.625,-2944,1.8050275904,384,0.2354383814,-15856,9.7216431637,-1,1.3414634146,-22,0.0609756098,-11,0.6707317073,4,-0.0173913043,-48,-0.2086956522,141,-0.687804878
12897950,17910.15625,-3136,1.9227467811,416,0.2550582465,-15904,9.7510729614,13,1.4024390244,-23,-0.7926829268,-19,1.1585365854,3,-0.0130434783,-47,-0.2043478261,142,-0.6926829268
12898590,17929.6875,-3024,1.8540772532,384,0.2354383814,-15936,9.7706928265,13,1.4024390244,-23,-0.7926829268,-19,1.1585365854,1,-0.0043478261,-44,-0.1913043478,142,-0.6926829268
12899230,17949.21875,-3088,1.8933169834,304,0.1863887186,-15888,9.7412630288,-5,1.6463414634,-27,0.3048780488,-7,0.4268292683,2,-0.0086956522,-45,-0.1956521739,139,-0.6780487805
12899870,17968.75,-3120,1.9129368486,336,0.2060085837,-15952,9.780502759,-5,1.6463414634,-27,0.3048780488,-7,0.4268292683,2,-0.0086956522,-44,-0.1913043478,141,-0.687804878
12900510,17988.28125,-3168,1.9423666462,352,0.2158185162,-16032,9.8295524218,7,1.8902439024,-31,-0.4268292683,-3,0.1829268293,3,-0.0130434783,-41,-0.1782608696,138,-0.6731707317
12901150,18007.8125,-3120,1.9129368486,304,0.1863887186,-16000,9.8099325567,6,2.012195122,-33,-0.3658536585,-5,0.3048780488,0,0,-42,-0.1826086957,140,-0.6829268293
12901790,18027.34375,-3056,1.8736971183,304,0.1863887186,-15984,9.8001226242,6,2.012195122,-33,-0.3658536585,-5,0.3048780488,0,0,-43,-0.1869565217,140,-0.6829268293
12902430,18046.875,-3120,1.9129368486,336,0.2060085837,-16048,9.8393623544,-7,2.6219512195,-43,0.4268292683,-10,0.6097560976,1,-0.0043478261,-42,-0.1826086957,138,-0.6731707317
12903070,18066.40625,-3024,1.8540772532,256,0.1569589209,-16000,9.8099325567,18,3.2926829268,-54,-1.0975609756,-6,0.3658536585,2,-0.0086956522,-46,-0.2,142,-0.6926829268
12903710,18085.9375,-3248,1.991416309,320,0.1961986511,-16016,9.8197424893,18,3.2926829268,-54,-1.0975609756,-6,0.3658536585,3,-0.0130434783,-45,-0.1956521739,141,-0.687804878
12904350,18105.46875,-3216,1.9717964439,256,0.1569589209,-16000,9.8099325567,3,3.3536585366,-55,-0.1829268293,0,0,0,0,-41,-0.1782608696,139,-0.6780487805
12904990,18125,-3104,1.903126916,272,0.1667688535,-15952,9.780502759,3,3.3536585366,-55,-0.1829268293,0,0,2,-0.0086956522,-44,-0.1913043478,139,-0.6780487805
12905630,18144.53125,-3232,1.9816063765,336,0.2060085837,-15904,9.7510729614,0,3.7804878049,-62,0,5,-0.3048780488,2,-0.0086956522,-42,-0.1826086957,141,-0.687804878
12906270,18164.0625,-3216,1.9717964439,240,0.1471489884,-15968,9.7903126916,-9,3.9024390244,-64,0.5487804878,11,-0.6707317073,3,-0.0130434783,-47,-0.2043478261,141,-0.687804878
12906910,18183.59375,-3088,1.8933169834,240,0.1471489884,-16000,9.8099325567,-9,3.9024390244,-64,0.5487804878,11,-0.6707317073,4,-0.0173913043,-42,-0.1826086957,139,-0.6780487805
12907550,18203.125,-3056,1.8736971183,352,0.2158185162,-16000,9.8099325567,-10,4.2682926829,-70,0.6097560976,4,-0.243902439,3,-0.0130434783,-45,-0.1956521739,142,-0.6926829268
12908190,18222.65625,-2976,1.8246474555,368,0.2256284488,-15984,9.8001226242,-10,4.2682926829,-70,0.6097560976,4,-0.243902439,1,-0.0043478261,-41,-0.1782608696,140,-0.6829268293
12908830,18242.1875,-2944,1.8050275904,352,0.2158185162,-15952,9.780502759,2,4.3902439024,-72,-0.1219512195,3,-0.1829268293,2,-0.0086956522,-47,-0.2043478261,142,-0.6926829268
12909470,18261.71875,-3088,1.8933169834,384,0.2354383814,-15856,9.7216431637,11,4.756097561,-78,-0.6707317073,5,-0.3048780488,2,-0.0086956522,-41,-0.1782608696,141,-0.687804878
12910110,18281.25,-3040,1.8638871858,464,0.2844880441,-15840,9.7118332311,11,4.756097561,-78,-0.6707317073,5,-0.3048780488,1,-0.0043478261,-46,-0.2,140,-0.6829268293
12910750,18300.78125,-2992,1.8344573881,368,0.2256284488,-15760,9.6627835684,-1,5.1829268293,-85,0.0609756098,2,-0.1219512195,1,-0.0043478261,-43,-0.1869565217,139,-0.6780487805
12911390,18320.3125,-3056,1.8736971183,448,0.2746781116,-15664,9.603923973,-1,5.1829268293,-85,0.0609756098,2,-0.1219512195,3,-0.0130434783,-41,-0.1782608696,139,-0.6780487805
12912030,18339.84375,-3120,1.9129368486,464,0.2844880441,-15600,9.5646842428,14,4.6341463415,-76,-0.8536585366,-4,0.243902439,1,-0.0043478261,-45,-0.1956521739,141,-0.687804878
12912670,18359.375,-3120,1.9129368486,480,0.2942979767,-15584,9.5548743102,9,4.0243902439,-66,-0.5487804878,2,-0.1219512195,4,-0.0173913043,-44,-0.1913043478,141,-0.687804878
12913310,18378.90625,-3008,1.8442673207,512,0.3139178418,-15568,9.5450643777,9,4.0243902439,-66,-0.5487804878,2,-0.1219512195,3,-0.0130434783,-46,-0.2,141,-0.687804878
12913950,18398.4375,-3056,1.8736971183,512,0.3139178418,-15648,9.5941140405,11,3.5975609756,-59,-0.6707317073,7,-0.4268292683,2,-0.0086956522,-45,-0.1956521739,141,-0.687804878
12914590,18417.96875,-3056,1.8736971183,480,0.2942979767,-15696,9.6235438381,23,3.2317073171,-53,-1.4024390244,8,-0.487804878,2,-0.0086956522,-43,-0.1869565217,140,-0.6829268293
12915230,18437.5,-3008,1.8442673207,496,0.3041079093,-15584,9.5548743102,23,3.2317073171,-53,-1.4024390244,8,-0.487804878,3,-0.0130434783,-44,-0.1913043478,140,-0.6829268293
12915870,18457.03125,-3104,1.903126916,448,0.2746781116,-15616,9.5744941754,18,2.987804878,-49,-1.0975609756,5,-0.3048780488,0,0,-41,-0.1782608696,140,-0.6829268293
12916510,18476.5625,-3136,1.9227467811,496,0.3041079093,-15664,9.603923973,18,2.987804878,-49,-1.0975609756,5,-0.3048780488,2,-0.0086956522,-42,-0.1826086957,141,-0.687804878
12917150,18496.09375,-3120,1.9129368486,464,0.2844880441,-15712,9.6333537707,-15,2.987804878,-49,0.9146341463,4,-0.243902439,4,-0.0173913043,-42,-0.1826086957,140,-0.6829268293
12917790,18515.625,-3088,1.8933169834,464,0.2844880441,-15648,9.5941140405,-2,2.3780487805,-39,0.1219512195,7,-0.4268292683,2,-0.0086956522,-38,-0.1652173913,140,-0.6829268293
12918430,18535.15625,-3024,1.8540772532,480,0.2942979767,-15712,9.6333537707,-2,2.3780487805,-39,0.1219512195,7,-0.4268292683,2,-0.0086956522,-43,-0.1869565217,141,-0.687804878
12919070,18554.6875,-3056,1.8736971183,528,0.3237277744,-15728,9.6431637032,23,1.8902439024,-31,-1.4024390244,4,-0.243902439,3,-0.0130434783,-45,-0.1956521739,141,-0.687804878
12919710,18574.21875,-3104,1.903126916,592,0.3629675046,-15792,9.6824034335,23,1.8902439024,-31,-1.4024390244,4,-0.243902439,4,-0.0173913043,-47,-0.2043478261,141,-0.687804878
12920350,18593.75,-3200,1.9619865113,592,0.3629675046,-15808,9.692213366,11,1.8292682927,-30,-0.6707317073,7,-0.4268292683,5,-0.0217391304,-47,-0.2043478261,142,-0.6926829268
12920990,18613.28125,-3152,1.9325567137,528,0.3237277744,-15840,9.7118332311,-21,2.1341463415,-35,1.2804878049,5,-0.3048780488,2,-0.0086956522,-44,-0.1913043478,139,-0.6780487805
12921630,18632.8125,-3008,1.8442673207,464,0.2844880441,-15824,9.7020232986,-21,2.1341463415,-35,1.2804878049,5,-0.3048780488,5,-0.0217391304,-44,-0.1913043478,141,-0.687804878
12922270,18652.34375,-2992,1.8344573881,528,0.3237277744,-15728,9.6431637032,6,1.8292682927,-30,-0.3658536585,2,-0.1219512195,2,-0.0086956522,-46,-0.2,141,-0.687804878
12922910,18671.875,-3056,1.8736971183,432,0.264868179,-15824,9.7020232986,6,1.8292682927,-30,-0.3658536585,2,-0.1219512195,2,-0.0086956522,-45,-0.1956521739,141,-0.687804878
12923550,18691.40625,-3072,1.8835070509,400,0.2452483139,-15872,9.7314530963,10,1.7682926829,-29,-0.6097560976,-1,0.0609756098,4,-0.0173913043,-44,-0.1913043478,141,-0.687804878
12924190,18710.9375,-3056,1.8736971183,448,0.2746781116,-15904,9.7510729614,7,1.8902439024,-31,-0.4268292683,3,-0.1829268293,-1,0.0043478261,-41,-0.1782608696,140,-0.6829268293
12924830,18730.46875,-3120,1.9129368486,320,0.1961986511,-15888,9.7412630288,7,1.8902439024,-31,-0.4268292683,3,-0.1829268293,1,-0.0043478261,-45,-0.1956521739,139,-0.6780487805
12925470,18750,-3104,1.903126916,384,0.2354383814,-15968,9.7903126916,-7,2.4390243902,-40,0.4268292683,-5,0.3048780488,1,-0.0043478261,-45,-0.1956521739,140,-0.6829268293
12926110,18769.53125,-3104,1.903126916,432,0.264868179,-16000,9.8099325567,4,2.8048780488,-46,-0.243902439,-13,0.7926829268,3,-0.0130434783,-43,-0.1869565217,139,-0.6780487805
12926750,18789.0625,-3088,1.8933169834,400,0.2452483139,-15904,9.7510729614,4,2.8048780488,-46,-0.243902439,-13,0.7926829268,2,-0.0086956522,-47,-0.2043478261,140,-0.6829268293
12927390,18808.59375,-3168,1.9423666462,400,0.2452483139,-15824,9.7020232986,16,2.9268292683,-48,-0.9756097561,-9,0.5487804878,2,-0.0086956522,-42,-0.1826086957,140,-0.6829268293
12928030,18828.125,-3152,1.9325567137,400,0.2452483139,-16000,9.8099325567,16,2.9268292683,-48,-0.9756097561,-9,0.5487804878,0,0,-43,-0.1869565217,140,-0.6829268293
12928670,18847.65625,-3184,1.9521765788,448,0.2746781116,-16048,9.8393623544,10,3.2317073171,-53,-0.6097560976,-10,0.6097560976,3,-0.0130434783,-48,-0.2086956522,141,-0.687804878
12929310,18867.1875,-3136,1.9227467811,432,0.264868179,-15936,9.7706928265,14,3.5365853659,-58,-0.8536585366,-10,0.6097560976,5,-0.0217391304,-47,-0.2043478261,142,-0.6926829268
12929950,18886.71875,-3264,2.0012262416,400,0.2452483139,-15920,9.7608828939,14,3.5365853659,-58,-0.8536585366,-10,0.6097560976,3,-0.0130434783,-44,-0.1913043478,140,-0.6829268293
12930590,18906.25,-3184,1.9521765788,416,0.2550582465,-16000,9.8099325567,15,3.5365853659,-58,-0.9146341463,-11,0.6707317073,1,-0.0043478261,-41,-0.1782608696,139,-0.6780487805
12931230,18925.78125,-3088,1.8933169834,400,0.2452483139,-15936,9.7706928265,15,3.5365853659,-58,-0.9146341463,-11,0.6707317073,3,-0.0130434783,-42,-0.1826086957,139,-0.6780487805
12931870,18945.3125,-3200,1.9619865113,384,0.2354383814,-15824,9.7020232986,16,3.5975609756,-59,-0.9756097561,-15,0.9146341463,3,-0.0130434783,-41,-0.1782608696,139,-0.6780487805
12932510,18964.84375,-3232,1.9816063765,368,0.2256284488,-15824,9.7020232986,-1,3.8414634146,-63,0.0609756098,-15,0.9146341463,1,-0.0043478261,-43,-0.1869565217,139,-0.6780487805
12933150,18984.375,-3136,1.9227467811,400,0.2452483139,-15808,9.692213366,-1,3.8414634146,-63,0.0609756098,-15,0.9146341463,4,-0.0173913043,-43,-0.1869565217,140,-0.6829268293
12933790,19003.90625,-3200,1.9619865113,400,0.2452483139,-15648,9.5941140405,9,4.0243902439,-66,-0.5487804878,-17,1.0365853659,1,-0.0043478261,-46,-0.2,142,-0.6926829268
12934430,19023.4375,-3152,1.9325567137,432,0.264868179,-15696,9.6235438381,9,4.0243902439,-66,-0.5487804878,-17,1.0365853659,2,-0.0086956522,-44,-0.1913043478,138,-0.6731707317
12935070,19042.96875,-3200,1.9619865113,464,0.2844880441,-15728,9.6431637032,5,3.7195121951,-61,-0.3048780488,-23,1.4024390244,5,-0.0217391304,-46,-0.2,140,-0.6829268293
12935710,19062.5,-3344,2.0502759044,400,0.2452483139,-15616,9.5744941754,11,3.3536585366,-55,-0.6707317073,-15,0.9146341463,4,-0.0173913043,-46,-0.2,140,-0.6829268293
12936350,19082.03125,-3312,2.0306560392,496,0.3041079093,-15648,9.5941140405,11,3.3536585366,-55,-0.6707317073,-15,0.9146341463,3,-0.0130434783,-47,-0.2043478261,141,-0.687804878
12936990,19101.5625,-3264,2.0012262416,480,0.2942979767,-15648,9.5941140405,1,3.4146341463,-56,-0.0609756098,-14,0.8536585366,3,-0.0130434783,-45,-0.1956521739,141,-0.687804878
12937630,19121.09375,-3248,1.991416309,384,0.2354383814,-15648,9.5941140405,14,2.8658536585,-47,-0.8536585366,-12,0.7317073171,3,-0.0130434783,-42,-0.1826086957,139,-0.6780487805
12938270,19140.625,-3280,2.0110361741,432,0.264868179,-15648,9.5941140405,14,2.8658536585,-47,-0.8536585366,-12,0.7317073171,3,-0.0130434783,-44,-0.1913043478,140,-0.6829268293
12938910,19160.15625,-3216,1.9717964439,416,0.2550582465,-15728,9.6431637032,1,2.6219512195,-43,-0.0609756098,-12,0.7317073171,2,-0.0086956522,-42,-0.1826086957,140,-0.6829268293
12939550,19179.6875,-3264,2.0012262416,352,0.2158185162,-15744,9.6529736358,1,2.6219512195,-43,-0.0609756098,-12,0.7317073171,2,-0.0086956522,-42,-0.1826086957,140,-0.6829268293
12940190,19199.21875,-3296,2.0208461067,368,0.2256284488,-15792,9.6824034335,14,2.743902439,-45,-0.8536585366,-6,0.3658536585,3,-0.0130434783,-42,-0.1826086957,140,-0.6829268293
12940830,19218.75,-3264,2.0012262416,384,0.2354383814,-15872,9.7314530963,11,2.5609756098,-42,-0.6707317073,-15,0.9146341463,2,-0.0086956522,-46,-0.2,140,-0.6829268293
12941470,19238.28125,-3280,2.0110361741,368,0.2256284488,-15808,9.692213366,11,2.5609756098,-42,-0.6707317073,-15,0.9146341463,4,-0.0173913043,-45,-0.1956521739,139,-0.6780487805
12942110,19257.8125,-3280,2.0110361741,432,0.264868179,-15856,9.7216431637,0,2.6829268293,-44,0,-16,0.9756097561,4,-0.0173913043,-44,-0.1913043478,140,-0.6829268293
12942750,19277.34375,-3360,2.0600858369,384,0.2354383814,-15776,9.6725935009,0,2.6829268293,-44,0,-16,0.9756097561,5,-0.0217391304,-47,-0.2043478261,142,-0.6926829268
12943390,19296.875,-3424,2.0993255671,448,0.2746781116,-15824,9.7020232986,-10,2.9268292683,-48,0.6097560976,-13,0.7926829268,2,-0.0086956522,-42,-0.1826086957,139,-0.6780487805
12944030,19316.40625,-3344,2.0502759044,384,0.2354383814,-15824,9.7020232986,19,2.987804878,-49,-1.1585365854,-3,0.1829268293,6,-0.0260869565,-44,-0.1913043478,141,-0.687804878
12944670,19335.9375,-3392,2.079705702,448,0.2746781116,-15872,9.7314530963,19,2.987804878,-49,-1.1585365854,-3,0.1829268293,5,-0.0217391304,-44,-0.1913043478,139,-0.6780487805
12945310,19355.46875,-3440,2.1091354997,416,0.2550582465,-15888,9.7412630288,14,3.1097560976,-51,-0.8536585366,-1,0.0609756098,2,-0.0086956522,-44,-0.1913043478,139,-0.6780487805
12945950,19375,-3472,2.1287553648,416,0.2550582465,-15920,9.7608828939,2,2.987804878,-49,-0.1219512195,1,-0.0609756098,1,-0.0043478261,-43,-0.1869565217,138,-0.6731707317
12946590,19394.53125,-3392,2.079705702,352,0.2158185162,-15872,9.7314530963,2,2.987804878,-49,-0.1219512195,1,-0.0609756098,5,-0.0217391304,-47,-0.2043478261,140,-0.6829268293
12947230,19414.0625,-3312,2.0306560392,320,0.1961986511,-15920,9.7608828939,4,3.5975609756,-59,-0.243902439,2,-0.1219512195,1,-0.0043478261,-41,-0.1782608696,139,-0.6780487805
12947870,19433.59375,-3344,2.0502759044,432,0.264868179,-15824,9.7020232986,4,3.5975609756,-59,-0.243902439,2,-0.1219512195,2,-0.0086956522,-43,-0.1869565217,139,-0.6780487805
12948510,19453.125,-3344,2.0502759044,416,0.2550582465,-15776,9.6725935009,4,3.4756097561,-57,-0.243902439,5,-0.3048780488,3,-0.0130434783,-44,-0.1913043478,141,-0.687804878
12949150,19472.65625,-3328,2.0404659718,432,0.264868179,-15824,9.7020232986,-19,3.4756097561,-57,1.1585365854,-1,0.0609756098,4,-0.0173913043,-48,-0.2086956522,140,-0.6829268293
12949790,19492.1875,-3280,2.0110361741,464,0.2844880441,-15728,9.6431637032,-19,3.4756097561,-57,1.1585365854,-1,0.0609756098,3,-0.0130434783,-39,-0.1695652174,139,-0.6780487805
12950430,19511.71875,-3280,2.0110361741,480,0.2942979767,-15776,9.6725935009,3,3.1097560976,-51,-0.1829268293,8,-0.487804878,2,-0.0086956522,-45,-0.1956521739,140,-0.6829268293
12951070,19531.25,-3344,2.0502759044,464,0.2844880441,-15840,9.7118332311,3,3.1097560976,-51,-0.1829268293,8,-0.487804878,1,-0.0043478261,-43,-0.1869565217,139,-0.6780487805
12951710,19550.78125,-3328,2.0404659718,448,0.2746781116,-15840,9.7118332311,-4,3.5975609756,-59,0.243902439,5,-0.3048780488,3,-0.0130434783,-46,-0.2,140,-0.6829268293
12952350,19570.3125,-3216,1.9717964439,496,0.3041079093,-15840,9.7118332311,3,3.6585365854,-60,-0.1829268293,-4,0.243902439,4,-0.0173913043,-48,-0.2086956522,141,-0.687804878
12952990,19589.84375,-3184,1.9521765788,416,0.2550582465,-15760,9.6627835684,3,3.6585365854,-60,-0.1829268293,-4,0.243902439,4,-0.0173913043,-44,-0.1913043478,140,-0.6829268293
12953630,19609.375,-3296,2.0208461067,432,0.264868179,-15680,9.6137339056,18,3.4756097561,-57,-1.0975609756,-7,0.4268292683,2,-0.0086956522,-42,-0.1826086957,137,-0.6682926829
12954270,19628.90625,-3344,2.0502759044,448,0.2746781116,-15712,9.6333537707,18,3.4756097561,-57,-1.0975609756,-7,0.4268292683,2,-0.0086956522,-46,-0.2,141,-0.687804878
12954910,19648.4375,-3376,2.0698957695,400,0.2452483139,-15664,9.603923973,3,3.1707317073,-52,-0.1829268293,-4,0.243902439,3,-0.0130434783,-45,-0.1956521739,140,-0.6829268293
12955550,19667.96875,-3296,2.0208461067,480,0.2942979767,-15680,9.6137339056,-8,3.0487804878,-50,0.487804878,2,-0.1219512195,1,-0.0043478261,-42,-0.1826086957,139,-0.6780487805
12956190,19687.5,-3296,2.0208461067,416,0.2550582465,-15488,9.4960147149,-8,3.0487804878,-50,0.487804878,2,-0.1219512195,1,-0.0043478261,-48,-0.2086956522,141,-0.687804878
12956830,19707.03125,-3408,2.0895156346,496,0.3041079093,-15616,9.5744941754,-9,2.9268292683,-48,0.5487804878,-1,0.0609756098,4,-0.0173913043,-43,-0.1869565217,139,-0.6780487805
12957470,19726.5625,-3392,2.079705702,400,0.2452483139,-15744,9.6529736358,-13,2.5609756098,-42,0.7926829268,-1,0.0609756098,3,-0.0130434783,-46,-0.2,140,-0.6829268293
12958110,19746.09375,-3344,2.0502759044,464,0.2844880441,-15680,9.6137339056,-13,2.5609756098,-42,0.7926829268,-1,0.0609756098,4,-0.0173913043,-48,-0.2086956522,140,-0.6829268293
12958750,19765.625,-3344,2.0502759044,480,0.2942979767,-15744,9.6529736358,-15,2.5609756098,-42,0.9146341463,2,-0.1219512195,3,-0.0130434783,-41,-0.1782608696,140,-0.6829268293
12959390,19785.15625,-3200,1.9619865113,512,0.3139178418,-15872,9.7314530963,-15,2.5609756098,-42,0.9146341463,2,-0.1219512195,3,-0.0130434783,-43,-0.1869565217,140,-0.6829268293
12960030,19804.6875,-3264,2.0012262416,432,0.264868179,-15808,9.692213366,15,2.1951219512,-36,-0.9146341463,5,-0.3048780488,3,-0.0130434783,-43,-0.1869565217,141,-0.687804878
12960670,19824.21875,-3440,2.1091354997,272,0.1667688535,-15808,9.692213366,-6,2.012195122,-33,0.3658536585,3,-0.1829268293,5,-0.0217391304,-48,-0.2086956522,141,-0.687804878
12961310,19843.75,-3264,2.0012262416,336,0.2060085837,-15936,9.7706928265,-6,2.012195122,-33,0.3658536585,3,-0.1829268293,4,-0.0173913043,-44,-0.1913043478,140,-0.6829268293
12961950,19863.28125,-3056,1.8736971183,320,0.1961986511,-15968,9.7903126916,3,2.743902439,-45,-0.1829268293,6,-0.3658536585,2,-0.0086956522,-42,-0.1826086957,139,-0.6780487805
12962590,19882.8125,-3216,1.9717964439,352,0.2158185162,-15952,9.780502759,3,2.743902439,-45,-0.1829268293,6,-0.3658536585,5,-0.0217391304,-47,-0.2043478261,142,-0.6926829268
12963230,19902.34375,-3312,2.0306560392,336,0.2060085837,-15856,9.7216431637,13,2.743902439,-45,-0.7926829268,0,0,3,-0.0130434783,-41,-0.1782608696,138,-0.6731707317
12963870,19921.875,-3264,2.0012262416,448,0.2746781116,-15952,9.780502759,-16,3.4146341463,-56,0.9756097561,-8,0.487804878,2,-0.0086956522,-44,-0.1913043478,140,-0.6829268293
12964510,19941.40625,-3232,1.9816063765,432,0.264868179,-15888,9.7412630288,-16,3.4146341463,-56,0.9756097561,-8,0.487804878,0,0,-40,-0.1739130435,139,-0.6780487805
12965150,19960.9375,-3264,2.0012262416,464,0.2844880441,-15856,9.7216431637,7,3.3536585366,-55,-0.4268292683,-11,0.6707317073,2,-0.0086956522,-46,-0.2,141,-0.687804878
12965790,19980.46875,-3328,2.0404659718,432,0.264868179,-15888,9.7412630288,7,3.3536585366,-55,-0.4268292683,-11,0.6707317073,2,-0.0086956522,-47,-0.2043478261,141,-0.687804878
12966430,20000,-3392,2.079705702,416,0.2550582465,-15792,9.6824034335,13,3.1707317073,-52,-0.7926829268,-6,0.3658536585,0,0,-41,-0.1782608696,139,-0.6780487805
12967070,20019.53125,-3392,2.079705702,416,0.2550582465,-15744,9.6529736358,-10,3.3536585366,-55,0.6097560976,-7,0.4268292683,2,-0.0086956522,-42,-0.1826086957,139,-0.6780487805
12967710,20039.0625,-3280,2.0110361741,400,0.2452483139,-15840,9.7118332311,-10,3.3536585366,-55,0.6097560976,-7,0.4268292683,2,-0.0086956522,-44,-0.1913043478,140,-0.6829268293
12968350,20058.59375,-3200,1.9619865113,400,0.2452483139,-15808,9.692213366,-16,3.2317073171,-53,0.9756097561,-5,0.3048780488,2,-0.0086956522,-43,-0.1869565217,140,-0.6829268293
12968990,20078.125,-3280,2.0110361741,352,0.2158185162,-15712,9.6333537707,-2,3.2926829268,-54,0.1219512195,-11,0.6707317073,4,-0.0173913043,-48,-0.2086956522,142,-0.6926829268
12969630,20097.65625,-3280,2.0110361741,448,0.2746781116,-15680,9.6137339056,-2,3.2926829268,-54,0.1219512195,-11,0.6707317073,2,-0.0086956522,-41,-0.1782608696,139,-0.6780487805
12970270,20117.1875,-3280,2.0110361741,480,0.2942979767,-15728,9.6431637032,-1,3.1097560976,-51,0.0609756098,-16,0.9756097561,2,-0.0086956522,-43,-0.1869565217,138,-0.6731707317
12970910,20136.71875,-3280,2.0110361741,464,0.2844880441,-15712,9.6333537707,-1,3.1097560976,-51,0.0609756098,-16,0.9756097561,4,-0.0173913043,-44,-0.1913043478,139,-0.6780487805
12971550,20156.25,-3264,2.0012262416,496,0.3041079093,-15680,9.6137339056,7,3.0487804878,-50,-0.4268292683,-11,0.6707317073,1,-0.0043478261,-41,-0.1782608696,138,-0.6731707317
12972190,20175.78125,-3344,2.0502759044,448,0.2746781116,-15712,9.6333537707,3,2.743902439,-45,-0.1829268293,-11,0.6707317073,2,-0.0086956522,-44,-0.1913043478,138,-0.6731707317
12972830,20195.3125,-3360,2.0600858369,512,0.3139178418,-15760,9.6627835684,3,2.743902439,-45,-0.1829268293,-11,0.6707317073,5,-0.0217391304,-45,-0.1956521739,140,-0.6829268293
12973470,20214.84375,-3232,1.9816063765,512,0.3139178418,-15808,9.692213366,-18,2.743902439,-45,1.0975609756,-15,0.9146341463,3,-0.0130434783,-40,-0.1739130435,139,-0.6780487805
12974110,20234.375,-3280,2.0110361741,464,0.2844880441,-15840,9.7118332311,-18,2.743902439,-45,1.0975609756,-15,0.9146341463,3,-0.0130434783,-48,-0.2086956522,141,-0.687804878
12974750,20253.90625,-3312,2.0306560392,432,0.264868179,-15808,9.692213366,3,2.4390243902,-40,-0.1829268293,-11,0.6707317073,4,-0.0173913043,-42,-0.1826086957,139,-0.6780487805
12975390,20273.4375,-3344,2.0502759044,416,0.2550582465,-15712,9.6333537707,8,2.6219512195,-43,-0.487804878,-10,0.6097560976,5,-0.0217391304,-48,-0.2086956522,140,-0.6829268293
12976030,20292.96875,-3328,2.0404659718,480,0.2942979767,-15792,9.6824034335,8,2.6219512195,-43,-0.487804878,-10,0.6097560976,3,-0.0130434783,-40,-0.1739130435,138,-0.6731707317
12976670,20312.5,-3264,2.0012262416,416,0.2550582465,-15760,9.6627835684,-12,2.8048780488,-46,0.7317073171,-17,1.0365853659,4,-0.0173913043,-42,-0.1826086957,140,-0.6829268293
12977310,20332.03125,-3296,2.0208461067,464,0.2844880441,-15776,9.6725935009,-12,2.8048780488,-46,0.7317073171,-17,1.0365853659,3,-0.0130434783,-43,-0.1869565217,141,-0.687804878
12977950,20351.5625,-3312,2.0306560392,496,0.3041079093,-15760,9.6627835684,-7,2.4390243902,-40,0.4268292683,-20,1.2195121951,3,-0.0130434783,-47,-0.2043478261,141,-0.687804878
12978590,20371.09375,-3376,2.0698957695,416,0.2550582465,-15808,9.692213366,-18,2.256097561,-37,1.0975609756,-18,1.0975609756,6,-0.0260869565,-47,-0.2043478261,142,-0.6926829268
12979230,20390.625,-3312,2.0306560392,432,0.264868179,-15728,9.6431637032,-18,2.256097561,-37,1.0975609756,-18,1.0975609756,1,-0.0043478261,-42,-0.1826086957,138,-0.6731707317
12979870,20410.15625,-3376,2.0698957695,384,0.2354383814,-15760,9.6627835684,-14,2.8048780488,-46,0.8536585366,-16,0.9756097561,2,-0.0086956522,-43,-0.1869565217,140,-0.6829268293
12980510,20429.6875,-3328,2.0404659718,448,0.2746781116,-15856,9.7216431637,-7,2.9268292683,-48,0.4268292683,-12,0.7317073171,4,-0.0173913043,-46,-0.2,141,-0.687804878
12981150,20449.21875,-3344,2.0502759044,368,0.2256284488,-15856,9.7216431637,-7,2.9268292683,-48,0.4268292683,-12,0.7317073171,3,-0.0130434783,-45,-0.1956521739,140,-0.6829268293
12981790,20468.75,-3216,1.9717964439,512,0.3139178418,-15760,9.6627835684,-10,2.8658536585,-47,0.6097560976,-16,0.9756097561,4,-0.0173913043,-44,-0.1913043478,140,-0.6829268293
12982430,20488.28125,-3264,2.0012262416,432,0.264868179,-15824,9.7020232986,-10,2.8658536585,-47,0.6097560976,-16,0.9756097561,5,-0.0217391304,-46,-0.2,140,-0.6829268293
12983070,20507.8125,-3376,2.0698957695,400,0.2452483139,-15920,9.7608828939,22,2.4390243902,-40,-1.3414634146,-7,0.4268292683,2,-0.0086956522,-45,-0.1956521739,138,-0.6731707317
12983710,20527.34375,-3392,2.079705702,352,0.2158185162,-15856,9.7216431637,4,2.743902439,-45,-0.243902439,-2,0.1219512195,3,-0.0130434783,-46,-0.2,138,-0.6731707317
12984350,20546.875,-3296,2.0208461067,384,0.2354383814,-15872,9.7314530963,4,2.743902439,-45,-0.243902439,-2,0.1219512195,0,0,-42,-0.1826086957,138,-0.6731707317
12984990,20566.40625,-3152,1.9325567137,320,0.1961986511,-15808,9.692213366,2,3.1097560976,-51,-0.1219512195,-6,0.3658536585,2,-0.0086956522,-41,-0.1782608696,138,-0.6731707317
12985630,20585.9375,-3344,2.0502759044,320,0.1961986511,-15840,9.7118332311,2,3.1097560976,-51,-0.1219512195,-6,0.3658536585,3,-0.0130434783,-42,-0.1826086957,140,-0.6829268293
12986270,20605.46875,-3376,2.0698957695,352,0.2158185162,-15792,9.6824034335,6,3.1097560976,-51,-0.3658536585,-8,0.487804878,3,-0.0130434783,-42,-0.1826086957,140,-0.6829268293
12986910,20625,-3344,2.0502759044,416,0.2550582465,-15904,9.7510729614,-12,3.1707317073,-52,0.7317073171,-9,0.5487804878,0,0,-43,-0.1869565217,139,-0.6780487805
12987550,20644.53125,-3264,2.0012262416,432,0.264868179,-15856,9.7216431637,-12,3.1707317073,-52,0.7317073171,-9,0.5487804878,3,-0.0130434783,-39,-0.1695652174,139,-0.6780487805
12988190,20664.0625,-3248,1.991416309,448,0.2746781116,-15792,9.6824034335,5,3.2926829268,-54,-0.3048780488,-3,0.1829268293,1,-0.0043478261,-42,-0.1826086957,138,-0.6731707317
12988830,20683.59375,-3264,2.0012262416,432,0.264868179,-15712,9.6333537707,5,3.2926829268,-54,-0.3048780488,-3,0.1829268293,5,-0.0217391304,-44,-0.1913043478,139,-0.6780487805
12989470,20703.125,-3312,2.0306560392,384,0.2354383814,-15856,9.7216431637,5,3.2317073171,-53,-0.3048780488,-7,0.4268292683,3,-0.0130434783,-41,-0.1782608696,137,-0.6682926829
12990110,20722.65625,-3344,2.0502759044,368,0.2256284488,-15744,9.6529736358,0,3.2926829268,-54,0,-3,0.1829268293,2,-0.0086956522,-45,-0.1956521739,138,-0.6731707317
12990750,20742.1875,-3296,2.0208461067,432,0.264868179,-15664,9.603923973,0,3.2926829268,-54,0,-3,0.1829268293,5,-0.0217391304,-44,-0.1913043478,140,-0.6829268293
12991390,20761.71875,-3200,1.9619865113,384,0.2354383814,-15920,9.7608828939,11,3.3536585366,-55,-0.6707317073,-9,0.5487804878,1,-0.0043478261,-44,-0.1913043478,140,-0.6829268293
12992030,20781.25,-3216,1.9717964439,336,0.2060085837,-15856,9.7216431637,32,2.9268292683,-48,-1.9512195122,-6,0.3658536585,2,-0.0086956522,-43,-0.1869565217,138,-0.6731707317
12992670,20800.78125,-3456,2.1189454323,288,0.176578786,-15792,9.6824034335,32,2.9268292683,-48,-1.9512195122,-6,0.3658536585,3,-0.0130434783,-41,-0.1782608696,139,-0.6780487805
12993310,20820.3125,-3424,2.0993255671,320,0.1961986511,-15872,9.7314530963,-12,3.2317073171,-53,0.7317073171,-6,0.3658536585,1,-0.0043478261,-40,-0.1739130435,139,-0.6780487805
12993950,20839.84375,-3328,2.0404659718,416,0.2550582465,-15920,9.7608828939,-12,3.2317073171,-53,0.7317073171,-6,0.3658536585,3,-0.0130434783,-45,-0.1956521739,141,-0.687804878
12994590,20859.375,-3264,2.0012262416,368,0.2256284488,-15936,9.7706928265,-4,3.6585365854,-60,0.243902439,-1,0.0609756098,4,-0.0173913043,-40,-0.1739130435,140,-0.6829268293
12995230,20878.90625,-3264,2.0012262416,400,0.2452483139,-15760,9.6627835684,1,3.5365853659,-58,-0.0609756098,-11,0.6707317073,3,-0.0130434783,-47,-0.2043478261,139,-0.6780487805
12995870,20898.4375,-3392,2.079705702,384,0.2354383814,-15728,9.6431637032,1,3.5365853659,-58,-0.0609756098,-11,0.6707317073,2,-0.0086956522,-39,-0.1695652174,138,-0.6731707317
12996510,20917.96875,-3312,2.0306560392,320,0.1961986511,-15840,9.7118332311,-24,3.4756097561,-57,1.4634146341,-10,0.6097560976,3,-0.0130434783,-44,-0.1913043478,139,-0.6780487805
12997150,20937.5,-3264,2.0012262416,400,0.2452483139,-15696,9.6235438381,-24,3.4756097561,-57,1.4634146341,-10,0.6097560976,4,-0.0173913043,-46,-0.2,140,-0.6829268293
12997790,20957.03125,-3232,1.9816063765,416,0.2550582465,-15776,9.6725935009,-17,3.4146341463,-56,1.0365853659,-7,0.4268292683,4,-0.0173913043,-47,-0.2043478261,141,-0.687804878
12998430,20976.5625,-3152,1.9325567137,400,0.2452483139,-15808,9.692213366,-1,3.7195121951,-61,0.0609756098,-15,0.9146341463,5,-0.0217391304,-41,-0.1782608696,137,-0.6682926829
12999070,20996.09375,-3184,1.9521765788,416,0.2550582465,-15616,9.5744941754,-1,3.7195121951,-61,0.0609756098,-15,0.9146341463,4,-0.0173913043,-44,-0.1913043478,139,-0.6780487805
12999710,21015.625,-3312,2.0306560392,448,0.2746781116,-15632,9.5843041079,-3,3.4146341463,-56,0.1829268293,-22,1.3414634146,2,-0.0086956522,-43,-0.1869565217,139,-0.6780487805
13000350,21035.15625,-3264,2.0012262416,416,0.2550582465,-15712,9.6333537707,-3,3.4146341463,-56,0.1829268293,-22,1.3414634146,2,-0.0086956522,-46,-0.2,141,-0.687804878
13000990,21054.6875,-3328,2.0404659718,448,0.2746781116,-15696,9.6235438381,-3,3.4146341463,-56,0.1829268293,-18,1.0975609756,2,-0.0086956522,-43,-0.1869565217,139,-0.6780487805
13001630,21074.21875,-3376,2.0698957695,464,0.2844880441,-15728,9.6431637032,-1,2.8658536585,-47,0.0609756098,-10,0.6097560976,5,-0.0217391304,-46,-0.2,140,-0.6829268293
13002270,21093.75,-3280,2.0110361741,400,0.2452483139,-15728,9.6431637032,-1,2.8658536585,-47,0.0609756098,-10,0.6097560976,0,0,-41,-0.1782608696,138,-0.6731707317
13002910,21113.28125,-3360,2.0600858369,464,0.2844880441,-15712,9.6333537707,2,2.8658536585,-47,-0.1219512195,-16,0.9756097561,4,-0.0173913043,-45,-0.1956521739,138,-0.6731707317
13003550,21132.8125,-3360,2.0600858369,384,0.2354383814,-15696,9.6235438381,7,2.6829268293,-44,-0.4268292683,-14,0.8536585366,4,-0.0173913043,-42,-0.1826086957,140,-0.6829268293
13004190,21152.34375,-3360,2.0600858369,432,0.264868179,-15760,9.6627835684,7,2.6829268293,-44,-0.4268292683,-14,0.8536585366,2,-0.0086956522,-42,-0.1826086957,137,-0.6682926829
13004830,21171.875,-3360,2.0600858369,432,0.264868179,-15728,9.6431637032,-9,2.987804878,-49,0.5487804878,-14,0.8536585366,5,-0.0217391304,-48,-0.2086956522,141,-0.687804878
13005470,21191.40625,-3376,2.0698957695,416,0.2550582465,-15792,9.6824034335,-9,2.987804878,-49,0.5487804878,-14,0.8536585366,3,-0.0130434783,-42,-0.1826086957,140,-0.6829268293
13006110,21210.9375,-3408,2.0895156346,448,0.2746781116,-15712,9.6333537707,-2,2.8658536585,-47,0.1219512195,-8,0.487804878,2,-0.0086956522,-44,-0.1913043478,141,-0.687804878
13006750,21230.46875,-3296,2.0208461067,432,0.264868179,-15712,9.6333537707,13,2.8048780488,-46,-0.7926829268,-8,0.487804878,5,-0.0217391304,-46,-0.2,141,-0.687804878
13007390,21250,-3312,2.0306560392,432,0.264868179,-15760,9.6627835684,13,2.8048780488,-46,-0.7926829268,-8,0.487804878,5,-0.0217391304,-46,-0.2,142,-0.6926829268
13008030,21269.53125,-3408,2.0895156346,400,0.2452483139,-15808,9.692213366,19,2.0731707317,-34,-1.1585365854,-6,0.3658536585,4,-0.0173913043,-45,-0.1956521739,140,-0.6829268293
13008670,21289.0625,-3408,2.0895156346,384,0.2354383814,-15696,9.6235438381,19,2.0731707317,-34,-1.1585365854,-6,0.3658536585,2,-0.0086956522,-42,-0.1826086957,138,-0.6731707317
13009310,21308.59375,-3392,2.079705702,368,0.2256284488,-15712,9.6333537707,-7,2.3170731707,-38,0.4268292683,2,-0.1219512195,3,-0.0130434783,-44,-0.1913043478,139,-0.6780487805
13009950,21328.125,-3264,2.0012262416,416,0.2550582465,-15776,9.6725935009,-1,2.256097561,-37,0.0609756098,-2,0.1219512195,1,-0.0043478261,-45,-0.1956521739,140,-0.6829268293
13010590,21347.65625,-3248,1.991416309,432,0.264868179,-15824,9.7020232986,-1,2.256097561,-37,0.0609756098,-2,0.1219512195,2,-0.0086956522,-47,-0.2043478261,140,-0.6829268293
13011230,21367.1875,-3360,2.0600858369,464,0.2844880441,-15712,9.6333537707,11,2.3780487805,-39,-0.6707317073,-12,0.7317073171,4,-0.0173913043,-45,-0.1956521739,139,-0.6780487805
13011870,21386.71875,-3408,2.0895156346,384,0.2354383814,-15824,9.7020232986,11,2.3780487805,-39,-0.6707317073,-12,0.7317073171,1,-0.0043478261,-44,-0.1913043478,138,-0.6731707317
13012510,21406.25,-3312,2.0306560392,368,0.2256284488,-15840,9.7118332311,-17,2.9268292683,-48,1.0365853659,-9,0.5487804878,4,-0.0173913043,-42,-0.1826086957,140,-0.6829268293
13013150,21425.78125,-3184,1.9521765788,368,0.2256284488,-15792,9.6824034335,-16,2.5,-41,0.9756097561,-7,0.4268292683,4,-0.0173913043,-43,-0.1869565217,139,-0.6780487805
13013790,21445.3125,-3312,2.0306560392,416,0.2550582465,-15840,9.7118332311,-16,2.5,-41,0.9756097561,-7,0.4268292683,3,-0.0130434783,-47,-0.2043478261,141,-0.687804878
13014430,21464.84375,-3312,2.0306560392,352,0.2158185162,-15824,9.7020232986,-16,2.3780487805,-39,0.9756097561,-6,0.3658536585,3,-0.0130434783,-43,-0.1869565217,140,-0.6829268293
13015070,21484.375,-3216,1.9717964439,368,0.2256284488,-15824,9.7020232986,-24,2.6219512195,-43,1.4634146341,-3,0.1829268293,3,-0.0130434783,-45,-0.1956521739,140,-0.6829268293
13015710,21503.90625,-3248,1.991416309,352,0.2158185162,-15888,9.7412630288,-24,2.6219512195,-43,1.4634146341,-3,0.1829268293,3,-0.0130434783,-39,-0.1695652174,138,-0.6731707317
13016350,21523.4375,-3216,1.9717964439,368,0.2256284488,-15872,9.7314530963,-17,3.1097560976,-51,1.0365853659,-5,0.3048780488,3,-0.0130434783,-41,-0.1782608696,139,-0.6780487805
13016990,21542.96875,-3136,1.9227467811,400,0.2452483139,-15840,9.7118332311,-17,3.1097560976,-51,1.0365853659,-5,0.3048780488,2,-0.0086956522,-41,-0.1782608696,139,-0.6780487805
13017630,21562.5,-3152,1.9325567137,480,0.2942979767,-15760,9.6627835684,-9,3.1707317073,-52,0.5487804878,-18,1.0975609756,-1,0.0043478261,-43,-0.1869565217,140,-0.6829268293
13018270,21582.03125,-3248,1.991416309,384,0.2354383814,-15824,9.7020232986,2,2.8658536585,-47,-0.1219512195,-13,0.7926829268,2,-0.0086956522,-42,-0.1826086957,139,-0.6780487805
13018910,21601.5625,-3360,2.0600858369,320,0.1961986511,-15920,9.7608828939,2,2.8658536585,-47,-0.1219512195,-13,0.7926829268,2,-0.0086956522,-43,-0.1869565217,139,-0.6780487805
13019550,21621.09375,-3456,2.1189454323,352,0.2158185162,-15856,9.7216431637,-7,3.1097560976,-51,0.4268292683,-8,0.487804878,-1,0.0043478261,-40,-0.1739130435,139,-0.6780487805
13020190,21640.625,-3328,2.0404659718,368,0.2256284488,-15904,9.7510729614,-7,3.1097560976,-51,0.4268292683,-8,0.487804878,2,-0.0086956522,-45,-0.1956521739,140,-0.6829268293
13020830,21660.15625,-3216,1.9717964439,384,0.2354383814,-15888,9.7412630288,-12,3.1707317073,-52,0.7317073171,-3,0.1829268293,2,-0.0086956522,-45,-0.1956521739,139,-0.6780487805
13021470,21679.6875,-3312,2.0306560392,368,0.2256284488,-15808,9.692213366,5,3.3536585366,-55,-0.3048780488,-5,0.3048780488,4,-0.0173913043,-44,-0.1913043478,140,-0.6829268293
13022110,21699.21875,-3328,2.0404659718,368,0.2256284488,-15856,9.7216431637,5,3.3536585366,-55,-0.3048780488,-5,0.3048780488,0,0,-41,-0.1782608696,139,-0.6780487805
13022750,21718.75,-3232,1.9816063765,384,0.2354383814,-15856,9.7216431637,0,3.4756097561,-57,0,-8,0.487804878,1,-0.0043478261,-38,-0.1652173913,139,-0.6780487805
13023390,21738.28125,-3264,2.0012262416,448,0.2746781116,-15696,9.6235438381,8,3.6585365854,-60,-0.487804878,-3,0.1829268293,3,-0.0130434783,-42,-0.1826086957,140,-0.6829268293
13024030,21757.8125,-3376,2.0698957695,352,0.2158185162,-15712,9.6333537707,8,3.6585365854,-60,-0.487804878,-3,0.1829268293,1,-0.0043478261,-41,-0.1782608696,139,-0.6780487805
13024670,21777.34375,-3360,2.0600858369,416,0.2550582465,-15728,9.6431637032,17,3.4146341463,-56,-1.0365853659,-3,0.1829268293,2,-0.0086956522,-46,-0.2,140,-0.6829268293
13025310,21796.875,-3376,2.0698957695,416,0.2550582465,-15712,9.6333537707,17,3.4146341463,-56,-1.0365853659,-3,0.1829268293,4,-0.0173913043,-41,-0.1782608696,138,-0.6731707317
13025950,21816.40625,-3344,2.0502759044,432,0.264868179,-15776,9.6725935009,10,3.2317073171,-53,-0.6097560976,-3,0.1829268293,4,-0.0173913043,-43,-0.1869565217,138,-0.6731707317
13026590,21835.9375,-3344,2.0502759044,384,0.2354383814,-15712,9.6333537707,-20,3.3536585366,-55,1.2195121951,-1,0.0609756098,6,-0.0260869565,-44,-0.1913043478,140,-0.6829268293
13027230,21855.46875,-3216,1.9717964439,416,0.2550582465,-15760,9.6627835684,-20,3.3536585366,-55,1.2195121951,-1,0.0609756098,1,-0.0043478261,-43,-0.1869565217,138,-0.6731707317
13027870,21875,-3104,1.903126916,416,0.2550582465,-15728,9.6431637032,-11,3.0487804878,-50,0.6707317073,-3,0.1829268293,4,-0.0173913043,-44,-0.1913043478,140,-0.6829268293
13028510,21894.53125,-3184,1.9521765788,400,0.2452483139,-15648,9.5941140405,-11,3.0487804878,-50,0.6707317073,-3,0.1829268293,3,-0.0130434783,-40,-0.1739130435,139,-0.6780487805
13029150,21914.0625,-3264,2.0012262416,496,0.3041079093,-15792,9.6824034335,-12,2.743902439,-45,0.7317073171,-2,0.1219512195,3,-0.0130434783,-45,-0.1956521739,140,-0.6829268293
13029790,21933.59375,-3216,1.9717964439,480,0.2942979767,-15616,9.5744941754,-29,3.0487804878,-50,1.7682926829,-13,0.7926829268,3,-0.0130434783,-42,-0.1826086957,139,-0.6780487805
13030430,21953.125,-3040,1.8638871858,448,0.2746781116,-15616,9.5744941754,-29,3.0487804878,-50,1.7682926829,-13,0.7926829268,4,-0.0173913043,-42,-0.1826086957,139,-0.6780487805
13031070,21972.65625,-3168,1.9423666462,480,0.2942979767,-15616,9.5744941754,8,2.743902439,-45,-0.487804878,-13,0.7926829268,2,-0.0086956522,-47,-0.2043478261,140,-0.6829268293
13031710,21992.1875,-3312,2.0306560392,384,0.2354383814,-15648,9.5941140405,8,2.743902439,-45,-0.487804878,-13,0.7926829268,2,-0.0086956522,-43,-0.1869565217,141,-0.687804878
13032350,22011.71875,-3328,2.0404659718,416,0.2550582465,-15760,9.6627835684,-7,2.1951219512,-36,0.4268292683,-15,0.9146341463,2,-0.0086956522,-43,-0.1869565217,141,-0.687804878
13032990,22031.25,-3248,1.991416309,320,0.1961986511,-15872,9.7314530963,-20,1.8902439024,-31,1.2195121951,-3,0.1829268293,0,0,-43,-0.1869565217,140,-0.6829268293
13033630,22050.78125,-3216,1.9717964439,304,0.1863887186,-15872,9.7314530963,-20,1.8902439024,-31,1.2195121951,-3,0.1829268293,2,-0.0086956522,-40,-0.1739130435,138,-0.6731707317
13034270,22070.3125,-3280,2.0110361741,432,0.264868179,-15744,9.6529736358,-5,2.3780487805,-39,0.3048780488,-10,0.6097560976,2,-0.0086956522,-42,-0.1826086957,139,-0.6780487805
13034910,22089.84375,-3248,1.991416309,368,0.2256284488,-15744,9.6529736358,-10,2.6829268293,-44,0.6097560976,-25,1.5243902439,4,-0.0173913043,-42,-0.1826086957,140,-0.6829268293
13035550,22109.375,-3168,1.9423666462,368,0.2256284488,-15824,9.7020232986,-10,2.6829268293,-44,0.6097560976,-25,1.5243902439,2,-0.0086956522,-46,-0.2,140,-0.6829268293
13036190,22128.90625,-3264,2.0012262416,400,0.2452483139,-15792,9.6824034335,4,2.4390243902,-40,-0.243902439,-20,1.2195121951,2,-0.0086956522,-42,-0.1826086957,138,-0.6731707317
13036830,22148.4375,-3328,2.0404659718,384,0.2354383814,-15728,9.6431637032,4,2.4390243902,-40,-0.243902439,-20,1.2195121951,2,-0.0086956522,-46,-0.2,139,-0.6780487805
13037470,22167.96875,-3296,2.0208461067,352,0.2158185162,-15792,9.6824034335,-11,2.1341463415,-35,0.6707317073,-10,0.6097560976,1,-0.0043478261,-40,-0.1739130435,138,-0.6731707317
13038110,22187.5,-3280,2.0110361741,304,0.1863887186,-15792,9.6824034335,-7,2.1341463415,-35,0.4268292683,1,-0.0609756098,3,-0.0130434783,-44,-0.1913043478,138,-0.6731707317
13038750,22207.03125,-3296,2.0208461067,304,0.1863887186,-15792,9.6824034335,-7,2.1341463415,-35,0.4268292683,1,-0.0609756098,2,-0.0086956522,-45,-0.1956521739,139,-0.6780487805
13039390,22226.5625,-3328,2.0404659718,304,0.1863887186,-15808,9.692213366,-5,2.256097561,-37,0.3048780488,-1,0.0609756098,2,-0.0086956522,-45,-0.1956521739,139,-0.6780487805
13040030,22246.09375,-3296,2.0208461067,288,0.176578786,-15952,9.780502759,-5,2.256097561,-37,0.3048780488,-1,0.0609756098,2,-0.0086956522,-38,-0.1652173913,139,-0.6780487805
13040670,22265.625,-3152,1.9325567137,256,0.1569589209,-15888,9.7412630288,-7,2.4390243902,-40,0.4268292683,-10,0.6097560976,3,-0.0130434783,-42,-0.1826086957,140,-0.6829268293
13041310,22285.15625,-3296,2.0208461067,304,0.1863887186,-15936,9.7706928265,7,2.1951219512,-36,-0.4268292683,-1,0.0609756098,3,-0.0130434783,-43,-0.1869565217,142,-0.6926829268
13041950,22304.6875,-3360,2.0600858369,272,0.1667688535,-15968,9.7903126916,7,2.1951219512,-36,-0.4268292683,-1,0.0609756098,3,-0.0130434783,-42,-0.1826086957,140,-0.6829268293
13042590,22324.21875,-3200,1.9619865113,256,0.1569589209,-15968,9.7903126916,-33,2.8658536585,-47,2.012195122,-6,0.3658536585,2,-0.0086956522,-41,-0.1782608696,139,-0.6780487805
13043230,22343.75,-3136,1.9227467811,336,0.2060085837,-15904,9.7510729614,-33,2.8658536585,-47,2.012195122,-6,0.3658536585,2,-0.0086956522,-41,-0.1782608696,139,-0.6780487805
13043870,22363.28125,-3104,1.903126916,336,0.2060085837,-15888,9.7412630288,-5,3.1707317073,-52,0.3048780488,-4,0.243902439,1,-0.0043478261,-42,-0.1826086957,139,-0.6780487805
13044510,22382.8125,-3200,1.9619865113,320,0.1961986511,-15872,9.7314530963,-10,3.4756097561,-57,0.6097560976,-15,0.9146341463,3,-0.0130434783,-42,-0.1826086957,140,-0.6829268293
13045150,22402.34375,-3184,1.9521765788,304,0.1863887186,-15824,9.7020232986,-10,3.4756097561,-57,0.6097560976,-15,0.9146341463,2,-0.0086956522,-46,-0.2,141,-0.687804878
13045790,22421.875,-3120,1.9129368486,240,0.1471489884,-15792,9.6824034335,-24,3.9634146341,-65,1.4634146341,-18,1.0975609756,4,-0.0173913043,-45,-0.1956521739,141,-0.687804878
13046430,22441.40625,-3184,1.9521765788,352,0.2158185162,-15808,9.692213366,8,3.4756097561,-57,-0.487804878,-15,0.9146341463,2,-0.0086956522,-40,-0.1739130435,139,-0.6780487805
13047070,22460.9375,-3264,2.0012262416,352,0.2158185162,-15744,9.6529736358,8,3.4756097561,-57,-0.487804878,-15,0.9146341463,3,-0.0130434783,-43,-0.1869565217,139,-0.6780487805
13047710,22480.46875,-3312,2.0306560392,304,0.1863887186,-15856,9.7216431637,9,3.2317073171,-53,-0.5487804878,-15,0.9146341463,4,-0.0173913043,-45,-0.1956521739,140,-0.6829268293
13048350,22500,-3264,2.0012262416,352,0.2158185162,-15824,9.7020232986,9,3.2317073171,-53,-0.5487804878,-15,0.9146341463,0,0,-41,-0.1782608696,138,-0.6731707317
13048990,22519.53125,-3312,2.0306560392,336,0.2060085837,-15840,9.7118332311,-2,3.4756097561,-57,0.1219512195,-7,0.4268292683,2,-0.0086956522,-41,-0.1782608696,139,-0.6780487805
13049630,22539.0625,-3248,1.991416309,336,0.2060085837,-15824,9.7020232986,10,3.5365853659,-58,-0.6097560976,-9,0.5487804878,3,-0.0130434783,-42,-0.1826086957,141,-0.687804878
13050270,22558.59375,-3264,2.0012262416,304,0.1863887186,-15904,9.7510729614,10,3.5365853659,-58,-0.6097560976,-9,0.5487804878,2,-0.0086956522,-41,-0.1782608696,140,-0.6829268293
13050910,22578.125,-3344,2.0502759044,352,0.2158185162,-15840,9.7118332311,7,4.0243902439,-66,-0.4268292683,-12,0.7317073171,4,-0.0173913043,-46,-0.2,141,-0.687804878
13051550,22597.65625,-3328,2.0404659718,352,0.2158185162,-15840,9.7118332311,7,4.0243902439,-66,-0.4268292683,-12,0.7317073171,4,-0.0173913043,-45,-0.1956521739,140,-0.6829268293
13052190,22617.1875,-3280,2.0110361741,320,0.1961986511,-15792,9.6824034335,-7,3.8414634146,-63,0.4268292683,-10,0.6097560976,4,-0.0173913043,-44,-0.1913043478,139,-0.6780487805
13052830,22636.71875,-3280,2.0110361741,352,0.2158185162,-15776,9.6725935009,3,3.9024390244,-64,-0.1829268293,-4,0.243902439,1,-0.0043478261,-42,-0.1826086957,139,-0.6780487805
13053470,22656.25,-3248,1.991416309,416,0.2550582465,-15728,9.6431637032,3,3.9024390244,-64,-0.1829268293,-4,0.243902439,4,-0.0173913043,-39,-0.1695652174,139,-0.6780487805
13054110,22675.78125,-3200,1.9619865113,448,0.2746781116,-15664,9.603923973,6,3.7195121951,-61,-0.3658536585,-9,0.5487804878,1,-0.0043478261,-44,-0.1913043478,141,-0.687804878
13054750,22695.3125,-3216,1.9717964439,416,0.2550582465,-15568,9.5450643777,6,3.7195121951,-61,-0.3658536585,-9,0.5487804878,4,-0.0173913043,-43,-0.1869565217,140,-0.6829268293
13055390,22714.84375,-3312,2.0306560392,448,0.2746781116,-15552,9.5352544451,22,3.6585365854,-60,-1.3414634146,-1,0.0609756098,3,-0.0130434783,-41,-0.1782608696,139,-0.6780487805
13056030,22734.375,-3344,2.0502759044,400,0.2452483139,-15648,9.5941140405,-1,2.9268292683,-48,0.0609756098,-4,0.243902439,3,-0.0130434783,-42,-0.1826086957,138,-0.6731707317
13056670,22753.90625,-3232,1.9816063765,368,0.2256284488,-15728,9.6431637032,-1,2.9268292683,-48,0.0609756098,-4,0.243902439,3,-0.0130434783,-44,-0.1913043478,139,-0.6780487805
13057310,22773.4375,-3200,1.9619865113,384,0.2354383814,-15680,9.6137339056,-19,2.5609756098,-42,1.1585365854,-1,0.0609756098,1,-0.0043478261,-39,-0.1695652174,140,-0.6829268293
13057950,22792.96875,-3168,1.9423666462,352,0.2158185162,-15776,9.6725935009,-3,2.8048780488,-46,0.1829268293,1,-0.0609756098,3,-0.0130434783,-41,-0.1782608696,139,-0.6780487805
13058590,22812.5,-3104,1.903126916,336,0.2060085837,-15760,9.6627835684,-3,2.8048780488,-46,0.1829268293,1,-0.0609756098,2,-0.0086956522,-41,-0.1782608696,140,-0.6829268293
13059230,22832.03125,-3120,1.9129368486,384,0.2354383814,-15760,9.6627835684,21,2.743902439,-45,-1.2804878049,-6,0.3658536585,1,-0.0043478261,-42,-0.1826086957,139,-0.6780487805
13059870,22851.5625,-3248,1.991416309,368,0.2256284488,-15808,9.692213366,21,2.743902439,-45,-1.2804878049,-6,0.3658536585,2,-0.0086956522,-38,-0.1652173913,137,-0.6682926829
13060510,22871.09375,-3360,2.0600858369,368,0.2256284488,-15920,9.7608828939,24,2.743902439,-45,-1.4634146341,-14,0.8536585366,4,-0.0173913043,-47,-0.2043478261,142,-0.6926829268
13061150,22890.625,-3360,2.0600858369,384,0.2354383814,-15808,9.692213366,-12,3.1707317073,-52,0.7317073171,-12,0.7317073171,3,-0.0130434783,-44,-0.1913043478,140,-0.6829268293
13061790,22910.15625,-3264,2.0012262416,400,0.2452483139,-15904,9.7510729614,-12,3.1707317073,-52,0.7317073171,-12,0.7317073171,2,-0.0086956522,-41,-0.1782608696,138,-0.6731707317
13062430,22929.6875,-3232,1.9816063765,416,0.2550582465,-15840,9.7118332311,-2,3.0487804878,-50,0.1219512195,-9,0.5487804878,4,-0.0173913043,-47,-0.2043478261,142,-0.6926829268
13063070,22949.21875,-3408,2.0895156346,400,0.2452483139,-15888,9.7412630288,-2,3.0487804878,-50,0.1219512195,-9,0.5487804878,4,-0.0173913043,-41,-0.1782608696,139,-0.6780487805
13063710,22968.75,-3312,2.0306560392,448,0.2746781116,-15920,9.7608828939,5,3.1097560976,-51,-0.3048780488,-9,0.5487804878,1,-0.0043478261,-42,-0.1826086957,139,-0.6780487805
13064350,22988.28125,-3232,1.9816063765,368,0.2256284488,-15888,9.7412630288,0,3.5365853659,-58,0,-8,0.487804878,2,-0.0086956522,-41,-0.1782608696,137,-0.6682926829
13064990,23007.8125,-3264,2.0012262416,384,0.2354383814,-15936,9.7706928265,0,3.5365853659,-58,0,-8,0.487804878,2,-0.0086956522,-42,-0.1826086957,138,-0.6731707317
13065630,23027.34375,-3312,2.0306560392,368,0.2256284488,-15952,9.780502759,-4,3.7804878049,-62,0.243902439,-6,0.3658536585,4,-0.0173913043,-45,-0.1956521739,141,-0.687804878
13066270,23046.875,-3232,1.9816063765,368,0.2256284488,-15808,9.692213366,-4,3.7804878049,-62,0.243902439,-6,0.3658536585,4,-0.0173913043,-45,-0.1956521739,139,-0.6780487805
13066910,23066.40625,-3280,2.0110361741,400,0.2452483139,-15840,9.7118332311,-2,4.2682926829,-70,0.1219512195,-15,0.9146341463,3,-0.0130434783,-47,-0.2043478261,141,-0.687804878
13067550,23085.9375,-3280,2.0110361741,448,0.2746781116,-15776,9.6725935009,1,4.2682926829,-70,-0.0609756098,-15,0.9146341463,4,-0.0173913043,-46,-0.2,141,-0.687804878
13068190,23105.46875,-3360,2.0600858369,384,0.2354383814,-15712,9.6333537707,1,4.2682926829,-70,-0.0609756098,-15,0.9146341463,2,-0.0086956522,-41,-0.1782608696,139,-0.6780487805
13068830,23125,-3360,2.0600858369,480,0.2942979767,-15696,9.6235438381,1,3.8414634146,-63,-0.0609756098,-8,0.487804878,3,-0.0130434783,-42,-0.1826086957,137,-0.6682926829
13069470,23144.53125,-3328,2.0404659718,496,0.3041079093,-15760,9.6627835684,10,3.4146341463,-56,-0.6097560976,-3,0.1829268293,3,-0.0130434783,-42,-0.1826086957,138,-0.6731707317
13070110,23164.0625,-3312,2.0306560392,512,0.3139178418,-15648,9.5941140405,10,3.4146341463,-56,-0.6097560976,-3,0.1829268293,2,-0.0086956522,-42,-0.1826086957,139,-0.6780487805
13070750,23183.59375,-3360,2.0600858369,512,0.3139178418,-15616,9.5744941754,-2,3.3536585366,-55,0.1219512195,-3,0.1829268293,4,-0.0173913043,-44,-0.1913043478,140,-0.6829268293
13071390,23203.125,-3376,2.0698957695,544,0.3335377069,-15648,9.5941140405,-2,3.3536585366,-55,0.1219512195,-3,0.1829268293,4,-0.0173913043,-44,-0.1913043478,139,-0.6780487805
13072030,23222.65625,-3152,1.9325567137,448,0.2746781116,-15728,9.6431637032,-2,3.1707317073,-52,0.1219512195,-4,0.243902439,1,-0.0043478261,-43,-0.1869565217,139,-0.6780487805
13072670,23242.1875,-3264,2.0012262416,464,0.2844880441,-15744,9.6529736358,15,3.2926829268,-54,-0.9146341463,-5,0.3048780488,4,-0.0173913043,-44,-0.1913043478,139,-0.6780487805
13073310,23261.71875,-3328,2.0404659718,448,0.2746781116,-15696,9.6235438381,15,3.2926829268,-54,-0.9146341463,-5,0.3048780488,4,-0.0173913043,-41,-0.1782608696,137,-0.6682926829
13073950,23281.25,-3248,1.991416309,416,0.2550582465,-15792,9.6824034335,3,2.8658536585,-47,-0.1829268293,-2,0.1219512195,2,-0.0086956522,-43,-0.1869565217,141,-0.687804878
13074590,23300.78125,-3264,2.0012262416,496,0.3041079093,-15808,9.692213366,3,2.8658536585,-47,-0.1829268293,-2,0.1219512195,2,-0.0086956522,-42,-0.1826086957,139,-0.6780487805
13075230,23320.3125,-3264,2.0012262416,464,0.2844880441,-15808,9.692213366,-12,2.8658536585,-47,0.7317073171,-6,0.3658536585,2,-0.0086956522,-40,-0.1739130435,139,-0.6780487805
13075870,23339.84375,-3248,1.991416309,432,0.264868179,-15824,9.7020232986,4,2.8048780488,-46,-0.243902439,-4,0.243902439,2,-0.0086956522,-42,-0.1826086957,139,-0.6780487805
13076510,23359.375,-3216,1.9717964439,432,0.264868179,-15872,9.7314530963,4,2.8048780488,-46,-0.243902439,-4,0.243902439,2,-0.0086956522,-45,-0.1956521739,138,-0.6731707317
13077150,23378.90625,-3360,2.0600858369,432,0.264868179,-15984,9.8001226242,7,3.2317073171,-53,-0.4268292683,-8,0.487804878,2,-0.0086956522,-47,-0.2043478261,139,-0.6780487805
13077790,23398.4375,-3424,2.0993255671,448,0.2746781116,-15872,9.7314530963,7,3.2317073171,-53,-0.4268292683,-8,0.487804878,5,-0.0217391304,-47,-0.2043478261,140,-0.6829268293
13078430,23417.96875,-3248,1.991416309,496,0.3041079093,-15888,9.7412630288,-19,3.7804878049,-62,1.1585365854,-10,0.6097560976,3,-0.0130434783,-42,-0.1826086957,139,-0.6780487805
13079070,23437.5,-3248,1.991416309,560,0.3433476395,-15872,9.7314530963,7,3.2317073171,-53,-0.4268292683,-9,0.5487804878,0,0,-42,-0.1826086957,139,-0.6780487805
13079710,23457.03125,-3328,2.0404659718,480,0.2942979767,-15808,9.692213366,7,3.2317073171,-53,-0.4268292683,-9,0.5487804878,2,-0.0086956522,-38,-0.1652173913,138,-0.6731707317
13080350,23476.5625,-3424,2.0993255671,432,0.264868179,-15680,9.6137339056,11,3.2926829268,-54,-0.6707317073,-2,0.1219512195,5,-0.0217391304,-47,-0.2043478261,140,-0.6829268293
13080990,23496.09375,-3360,2.0600858369,400,0.2452483139,-15776,9.6725935009,7,3.3536585366,-55,-0.4268292683,3,-0.1829268293,2,-0.0086956522,-45,-0.1956521739,140,-0.6829268293
13081630,23515.625,-3312,2.0306560392,368,0.2256284488,-15712,9.6333537707,7,3.3536585366,-55,-0.4268292683,3,-0.1829268293,1,-0.0043478261,-42,-0.1826086957,139,-0.6780487805
13082270,23535.15625,-3344,2.0502759044,352,0.2158185162,-15680,9.6137339056,8,3.2926829268,-54,-0.487804878,-1,0.0609756098,4,-0.0173913043,-41,-0.1782608696,138,-0.6731707317
13082910,23554.6875,-3360,2.0600858369,512,0.3139178418,-15584,9.5548743102,8,3.2926829268,-54,-0.487804878,-1,0.0609756098,4,-0.0173913043,-40,-0.1739130435,137,-0.6682926829
13083550,23574.21875,-3344,2.0502759044,624,0.3825873697,-15680,9.6137339056,-12,2.987804878,-49,0.7317073171,-13,0.7926829268,4,-0.0173913043,-43,-0.1869565217,139,-0.6780487805
13084190,23593.75,-3232,1.9816063765,528,0.3237277744,-15680,9.6137339056,-6,2.987804878,-49,0.3658536585,-7,0.4268292683,4,-0.0173913043,-44,-0.1913043478,140,-0.6829268293
13084830,23613.28125,-3280,2.0110361741,480,0.2942979767,-15712,9.6333537707,-6,2.987804878,-49,0.3658536585,-7,0.4268292683,3,-0.0130434783,-43,-0.1869565217,139,-0.6780487805
13085470,23632.8125,-3392,2.079705702,496,0.3041079093,-15728,9.6431637032,6,2.6219512195,-43,-0.3658536585,-3,0.1829268293,2,-0.0086956522,-45,-0.1956521739,139,-0.6780487805
13086110,23652.34375,-3280,2.0110361741,480,0.2942979767,-15760,9.6627835684,6,2.6219512195,-43,-0.3658536585,-3,0.1829268293,1,-0.0043478261,-40,-0.1739130435,138,-0.6731707317
13086750,23671.875,-3360,2.0600858369,448,0.2746781116,-15760,9.6627835684,16,2.6829268293,-44,-0.9756097561,-3,0.1829268293,5,-0.0217391304,-48,-0.2086956522,140,-0.6829268293
13087390,23691.40625,-3344,2.0502759044,544,0.3335377069,-15872,9.7314530963,15,3.0487804878,-50,-0.9146341463,-4,0.243902439,4,-0.0173913043,-46,-0.2,139,-0.6780487805
13088030,23710.9375,-3280,2.0110361741,512,0.3139178418,-15824,9.7020232986,15,3.0487804878,-50,-0.9146341463,-4,0.243902439,2,-0.0086956522,-42,-0.1826086957,138,-0.6731707317
13088670,23730.46875,-3360,2.0600858369,448,0.2746781116,-15824,9.7020232986,1,3.4146341463,-56,-0.0609756098,-9,0.5487804878,3,-0.0130434783,-42,-0.1826086957,137,-0.6682926829
13089310,23750,-3296,2.0208461067,480,0.2942979767,-15872,9.7314530963,-3,3.2926829268,-54,0.1829268293,-7,0.4268292683,5,-0.0217391304,-47,-0.2043478261,140,-0.6829268293
13089950,23769.53125,-3328,2.0404659718,448,0.2746781116,-15808,9.692213366,-3,3.2926829268,-54,0.1829268293,-7,0.4268292683,3,-0.0130434783,-40,-0.1739130435,138,-0.6731707317
13090590,23789.0625,-3280,2.0110361741,384,0.2354383814,-15824,9.7020232986,-1,3.5365853659,-58,0.0609756098,-7,0.4268292683,3,-0.0130434783,-44,-0.1913043478,140,-0.6829268293
13091230,23808.59375,-3392,2.079705702,432,0.264868179,-15664,9.603923973,-1,3.5365853659,-58,0.0609756098,-7,0.4268292683,4,-0.0173913043,-47,-0.2043478261,140,-0.6829268293
13091870,23828.125,-3312,2.0306560392,432,0.264868179,-15760,9.6627835684,-11,3.0487804878,-50,0.6707317073,-10,0.6097560976,5,-0.0217391304,-48,-0.2086956522,140,-0.6829268293
13092510,23847.65625,-3264,2.0012262416,480,0.2942979767,-15776,9.6725935009,11,3.2317073171,-53,-0.6707317073,-4,0.243902439,2,-0.0086956522,-42,-0.1826086957,138,-0.6731707317
13093150,23867.1875,-3344,2.0502759044,464,0.2844880441,-15616,9.5744941754,11,3.2317073171,-53,-0.6707317073,-4,0.243902439,6,-0.0260869565,-44,-0.1913043478,139,-0.6780487805
13093790,23886.71875,-3472,2.1287553648,496,0.3041079093,-15744,9.6529736358,4,3.2926829268,-54,-0.243902439,-9,0.5487804878,3,-0.0130434783,-45,-0.1956521739,141,-0.687804878
13094430,23906.25,-3376,2.0698957695,432,0.264868179,-15728,9.6431637032,4,3.2926829268,-54,-0.243902439,-9,0.5487804878,1,-0.0043478261,-48,-0.2086956522,140,-0.6829268293
13095070,23925.78125,-3424,2.0993255671,416,0.2550582465,-15664,9.603923973,-5,3.2317073171,-53,0.3048780488,-7,0.4268292683,4,-0.0173913043,-45,-0.1956521739,139,-0.6780487805
13095710,23945.3125,-3312,2.0306560392,464,0.2844880441,-15616,9.5744941754,2,2.9268292683,-48,-0.1219512195,-8,0.487804878,1,-0.0043478261,-42,-0.1826086957,139,-0.6780487805
13096350,23964.84375,-3216,1.9717964439,528,0.3237277744,-15680,9.6137339056,2,2.9268292683,-48,-0.1219512195,-8,0.487804878,0,0,-45,-0.1956521739,137,-0.6682926829
13096990,23984.375,-3424,2.0993255671,432,0.264868179,-15760,9.6627835684,17,2.5,-41,-1.0365853659,-5,0.3048780488,3,-0.0130434783,-46,-0.2,139,-0.6780487805
13097630,24003.90625,-3424,2.0993255671,432,0.264868179,-15744,9.6529736358,17,2.5,-41,-1.0365853659,-5,0.3048780488,3,-0.0130434783,-45,-0.1956521739,139,-0.6780487805
13098270,24023.4375,-3472,2.1287553648,512,0.3139178418,-15792,9.6824034335,-13,2.5,-41,0.7926829268,-2,0.1219512195,3,-0.0130434783,-43,-0.1869565217,137,-0.6682926829
13098910,24042.96875,-3264,2.0012262416,464,0.2844880441,-15840,9.7118332311,-17,2.8048780488,-46,1.0365853659,-2,0.1219512195,4,-0.0173913043,-40,-0.1739130435,139,-0.6780487805
13099550,24062.5,-3360,2.0600858369,528,0.3237277744,-15840,9.7118332311,-17,2.8048780488,-46,1.0365853659,-2,0.1219512195,4,-0.0173913043,-40,-0.1739130435,138,-0.6731707317
13100190,24082.03125,-3344,2.0502759044,448,0.2746781116,-15744,9.6529736358,-21,2.8658536585,-47,1.2804878049,-9,0.5487804878,3,-0.0130434783,-47,-0.2043478261,141,-0.687804878
13100830,24101.5625,-3248,1.991416309,528,0.3237277744,-15712,9.6333537707,-25,2.256097561,-37,1.5243902439,-15,0.9146341463,2,-0.0086956522,-43,-0.1869565217,139,-0.6780487805
13101470,24121.09375,-3200,1.9619865113,512,0.3139178418,-15856,9.7216431637,-25,2.256097561,-37,1.5243902439,-15,0.9146341463,2,-0.0086956522,-41,-0.1782608696,138,-0.6731707317
13102110,24140.625,-3408,2.0895156346,464,0.2844880441,-15824,9.7020232986,-15,2.256097561,-37,0.9146341463,-4,0.243902439,5,-0.0217391304,-47,-0.2043478261,141,-0.687804878
13102750,24160.15625,-3344,2.0502759044,464,0.2844880441,-15872,9.7314530963,-15,2.256097561,-37,0.9146341463,-4,0.243902439,4,-0.0173913043,-41,-0.1782608696,139,-0.6780487805
13103390,24179.6875,-3200,1.9619865113,400,0.2452483139,-15952,9.780502759,-26,2.8048780488,-46,1.5853658537,-9,0.5487804878,5,-0.0217391304,-44,-0.1913043478,139,-0.6780487805
13104030,24199.21875,-3184,1.9521765788,432,0.264868179,-15856,9.7216431637,7,2.6829268293,-44,-0.4268292683,-5,0.3048780488,4,-0.0173913043,-44,-0.1913043478,139,-0.6780487805
13104670,24218.75,-3344,2.0502759044,368,0.2256284488,-15904,9.7510729614,7,2.6829268293,-44,-0.4268292683,-5,0.3048780488,2,-0.0086956522,-47,-0.2043478261,141,-0.687804878
13105310,24238.28125,-3344,2.0502759044,416,0.2550582465,-15888,9.7412630288,-27,3.3536585366,-55,1.6463414634,-16,0.9756097561,2,-0.0086956522,-43,-0.1869565217,138,-0.6731707317
13105950,24257.8125,-3152,1.9325567137,384,0.2354383814,-15824,9.7020232986,-27,3.3536585366,-55,1.6463414634,-16,0.9756097561,5,-0.0217391304,-45,-0.1956521739,139,-0.6780487805
13106590,24277.34375,-3216,1.9717964439,400,0.2452483139,-15824,9.7020232986,7,3.2926829268,-54,-0.4268292683,-8,0.487804878,4,-0.0173913043,-46,-0.2,139,-0.6780487805
13107230,24296.875,-3376,2.0698957695,496,0.3041079093,-15792,9.6824034335,21,3.1097560976,-51,-1.2804878049,-10,0.6097560976,4,-0.0173913043,-46,-0.2,141,-0.687804878
13107870,24316.40625,-3488,2.1385652974,464,0.2844880441,-15824,9.7020232986,21,3.1097560976,-51,-1.2804878049,-10,0.6097560976,2,-0.0086956522,-43,-0.1869565217,140,-0.6829268293
13108510,24335.9375,-3376,2.0698957695,496,0.3041079093,-15744,9.6529736358,-7,3.4146341463,-56,0.4268292683,-10,0.6097560976,3,-0.0130434783,-42,-0.1826086957,140,-0.6829268293
13109150,24355.46875,-3408,2.0895156346,528,0.3237277744,-15744,9.6529736358,-7,3.4146341463,-56,0.4268292683,-10,0.6097560976,5,-0.0217391304,-46,-0.2,140,-0.6829268293
13109790,24375,-3360,2.0600858369,592,0.3629675046,-15744,9.6529736358,-6,3.1707317073,-52,0.3658536585,-2,0.1219512195,0,0,-43,-0.1869565217,141,-0.687804878
13110430,24394.53125,-3344,2.0502759044,560,0.3433476395,-15712,9.6333537707,-6,3.0487804878,-50,0.3658536585,-1,0.0609756098,0,0,-45,-0.1956521739,139,-0.6780487805
13111070,24414.0625,-3328,2.0404659718,544,0.3335377069,-15728,9.6431637032,-6,3.0487804878,-50,0.3658536585,-1,0.0609756098,3,-0.0130434783,-43,-0.1869565217,139,-0.6780487805
13111710,24433.59375,-3248,1.991416309,528,0.3237277744,-15792,9.6824034335,11,2.6219512195,-43,-0.6707317073,-1,0.0609756098,6,-0.0260869565,-47,-0.2043478261,141,-0.687804878
13112350,24453.125,-3360,2.0600858369,496,0.3041079093,-15760,9.6627835684,-3,2.4390243902,-40,0.1829268293,0,0,5,-0.0217391304,-44,-0.1913043478,139,-0.6780487805
13112990,24472.65625,-3296,2.0208461067,496,0.3041079093,-15712,9.6333537707,-3,2.4390243902,-40,0.1829268293,0,0,4,-0.0173913043,-44,-0.1913043478,140,-0.6829268293
13113630,24492.1875,-3248,1.991416309,416,0.2550582465,-15680,9.6137339056,9,2.6219512195,-43,-0.5487804878,-1,0.0609756098,3,-0.0130434783,-44,-0.1913043478,141,-0.687804878
13114270,24511.71875,-3296,2.0208461067,448,0.2746781116,-15728,9.6431637032,9,2.6219512195,-43,-0.5487804878,-1,0.0609756098,2,-0.0086956522,-43,-0.1869565217,137,-0.6682926829
13114910,24531.25,-3296,2.0208461067,480,0.2942979767,-15728,9.6431637032,11,2.5609756098,-42,-0.6707317073,-4,0.243902439,2,-0.0086956522,-39,-0.1695652174,139,-0.6780487805
13115550,24550.78125,-3328,2.0404659718,448,0.2746781116,-15632,9.5843041079,-19,2.8048780488,-46,1.1585365854,-12,0.7317073171,1,-0.0043478261,-41,-0.1782608696,140,-0.6829268293
13116190,24570.3125,-3296,2.0208461067,464,0.2844880441,-15696,9.6235438381,-19,2.8048780488,-46,1.1585365854,-12,0.7317073171,2,-0.0086956522,-45,-0.1956521739,138,-0.6731707317
13116830,24589.84375,-3264,2.0012262416,496,0.3041079093,-15776,9.6725935009,1,2.3780487805,-39,-0.0609756098,-6,0.3658536585,4,-0.0173913043,-43,-0.1869565217,139,-0.6780487805
13117470,24609.375,-3280,2.0110361741,448,0.2746781116,-15696,9.6235438381,1,2.3780487805,-39,-0.0609756098,-6,0.3658536585,3,-0.0130434783,-42,-0.1826086957,138,-0.6731707317
13118110,24628.90625,-3360,2.0600858369,400,0.2452483139,-15792,9.6824034335,-5,2.256097561,-37,0.3048780488,-8,0.487804878,3,-0.0130434783,-42,-0.1826086957,138,-0.6731707317
13118750,24648.4375,-3280,2.0110361741,384,0.2354383814,-15824,9.7020232986,4,2.1341463415,-35,-0.243902439,-2,0.1219512195,4,-0.0173913043,-42,-0.1826086957,140,-0.6829268293
13119390,24667.96875,-3344,2.0502759044,384,0.2354383814,-15872,9.7314530963,4,2.1341463415,-35,-0.243902439,-2,0.1219512195,3,-0.0130434783,-42,-0.1826086957,141,-0.687804878
13120030,24687.5,-3312,2.0306560392,384,0.2354383814,-15744,9.6529736358,-2,2.5609756098,-42,0.1219512195,-8,0.487804878,4,-0.0173913043,-47,-0.2043478261,140,-0.6829268293
13120670,24707.03125,-3296,2.0208461067,352,0.2158185162,-15840,9.7118332311,-2,2.5609756098,-42,0.1219512195,-8,0.487804878,4,-0.0173913043,-47,-0.2043478261,142,-0.6926829268
13121310,24726.5625,-3264,2.0012262416,432,0.264868179,-15840,9.7118332311,-2,2.5,-41,0.1219512195,-9,0.5487804878,0,0,-45,-0.1956521739,138,-0.6731707317
13121950,24746.09375,-3328,2.0404659718,448,0.2746781116,-15840,9.7118332311,0,2.6829268293,-44,0,-7,0.4268292683,5,-0.0217391304,-44,-0.1913043478,139,-0.6780487805
13122590,24765.625,-3392,2.079705702,352,0.2158185162,-15728,9.6431637032,0,2.6829268293,-44,0,-7,0.4268292683,5,-0.0217391304,-47,-0.2043478261,140,-0.6829268293
13123230,24785.15625,-3232,1.9816063765,416,0.2550582465,-15728,9.6431637032,-22,3.1707317073,-52,1.3414634146,-10,0.6097560976,4,-0.0173913043,-46,-0.2,140,-0.6829268293
13123870,24804.6875,-3184,1.9521765788,368,0.2256284488,-15728,9.6431637032,-27,2.4390243902,-40,1.6463414634,-10,0.6097560976,5,-0.0217391304,-43,-0.1869565217,138,-0.6731707317
13124510,24824.21875,-3248,1.991416309,368,0.2256284488,-15712,9.6333537707,-27,2.4390243902,-40,1.6463414634,-10,0.6097560976,5,-0.0217391304,-45,-0.1956521739,140,-0.6829268293
13125150,24843.75,-3296,2.0208461067,400,0.2452483139,-15776,9.6725935009,-11,2.1341463415,-35,0.6707317073,-9,0.5487804878,0,0,-47,-0.2043478261,140,-0.6829268293
13125790,24863.28125,-3264,2.0012262416,384,0.2354383814,-15808,9.692213366,-11,2.1341463415,-35,0.6707317073,-9,0.5487804878,2,-0.0086956522,-46,-0.2,140,-0.6829268293
13126430,24882.8125,-3248,1.991416309,464,0.2844880441,-15776,9.6725935009,-16,2.8658536585,-47,0.9756097561,-9,0.5487804878,4,-0.0173913043,-47,-0.2043478261,141,-0.687804878
13127070,24902.34375,-3312,2.0306560392,448,0.2746781116,-15744,9.6529736358,-35,3.0487804878,-50,2.1341463415,-20,1.2195121951,1,-0.0043478261,-41,-0.1782608696,139,-0.6780487805
13127710,24921.875,-3200,1.9619865113,384,0.2354383814,-15728,9.6431637032,-35,3.0487804878,-50,2.1341463415,-20,1.2195121951,3,-0.0130434783,-42,-0.1826086957,139,-0.6780487805
13128350,24941.40625,-3184,1.9521765788,384,0.2354383814,-15744,9.6529736358,-31,2.9268292683,-48,1.8902439024,-19,1.1585365854,2,-0.0086956522,-42,-0.1826086957,139,-0.6780487805
13128990,24960.9375,-3168,1.9423666462,336,0.2060085837,-15664,9.603923973,-31,2.9268292683,-48,1.8902439024,-19,1.1585365854,2,-0.0086956522,-38,-0.1652173913,138,-0.6731707317
13129630,24980.46875,-3264,2.0012262416,336,0.2060085837,-15744,9.6529736358,-3,2.6219512195,-43,0.1829268293,-9,0.5487804878,2,-0.0086956522,-38,-0.1652173913,138,-0.6731707317
13130270,25000,-3328,2.0404659718,448,0.2746781116,-15728,9.6431637032,16,2.1951219512,-36,-0.9756097561,-10,0.6097560976,3,-0.0130434783,-42,-0.1826086957,141,-0.687804878
13130910,25019.53125,-3440,2.1091354997,384,0.2354383814,-15648,9.5941140405,16,2.1951219512,-36,-0.9756097561,-10,0.6097560976,3,-0.0130434783,-43,-0.1869565217,140,-0.6829268293
13131550,25039.0625,-3360,2.0600858369,320,0.1961986511,-15648,9.5941140405,-23,2.3780487805,-39,1.4024390244,-14,0.8536585366,3,-0.0130434783,-42,-0.1826086957,141,-0.687804878
13132190,25058.59375,-3280,2.0110361741,368,0.2256284488,-15776,9.6725935009,-23,2.3780487805,-39,1.4024390244,-14,0.8536585366,4,-0.0173913043,-45,-0.1956521739,139,-0.6780487805
13132830,25078.125,-3232,1.9816063765,384,0.2354383814,-15888,9.7412630288,-10,2.1341463415,-35,0.6097560976,-6,0.3658536585,5,-0.0217391304,-42,-0.1826086957,140,-0.6829268293
13133470,25097.65625,-3216,1.9717964439,368,0.2256284488,-15792,9.6824034335,2,2.256097561,-37,-0.1219512195,-8,0.487804878,5,-0.0217391304,-43,-0.1869565217,139,-0.6780487805
13134110,25117.1875,-3232,1.9816063765,384,0.2354383814,-15808,9.692213366,2,2.256097561,-37,-0.1219512195,-8,0.487804878,1,-0.0043478261,-45,-0.1956521739,140,-0.6829268293
13134750,25136.71875,-3216,1.9717964439,320,0.1961986511,-15872,9.7314530963,-9,2.3780487805,-39,0.5487804878,-12,0.7317073171,2,-0.0086956522,-42,-0.1826086957,140,-0.6829268293
13135390,25156.25,-3216,1.9717964439,304,0.1863887186,-15856,9.7216431637,1,2.256097561,-37,-0.0609756098,-11,0.6707317073,3,-0.0130434783,-39,-0.1695652174,138,-0.6731707317
13136030,25175.78125,-3232,1.9816063765,256,0.1569589209,-15936,9.7706928265,1,2.256097561,-37,-0.0609756098,-11,0.6707317073,1,-0.0043478261,-42,-0.1826086957,139,-0.6780487805
13136670,25195.3125,-3248,1.991416309,288,0.176578786,-15888,9.7412630288,-5,2.8048780488,-46,0.3048780488,-10,0.6097560976,2,-0.0086956522,-44,-0.1913043478,139,-0.6780487805
13137310,25214.84375,-3296,2.0208461067,272,0.1667688535,-16016,9.8197424893,-5,2.8048780488,-46,0.3048780488,-10,0.6097560976,3,-0.0130434783,-41,-0.1782608696,140,-0.6829268293
13137950,25234.375,-3264,2.0012262416,256,0.1569589209,-15936,9.7706928265,-19,2.8658536585,-47,1.1585365854,-7,0.4268292683,1,-0.0043478261,-38,-0.1652173913,140,-0.6829268293
13138590,25253.90625,-3232,1.9816063765,272,0.1667688535,-15792,9.6824034335,-16,3.4146341463,-56,0.9756097561,-12,0.7317073171,2,-0.0086956522,-41,-0.1782608696,140,-0.6829268293
13139230,25273.4375,-3152,1.9325567137,320,0.1961986511,-15760,9.6627835684,-16,3.4146341463,-56,0.9756097561,-12,0.7317073171,2,-0.0086956522,-41,-0.1782608696,141,-0.687804878
13139870,25292.96875,-3072,1.8835070509,224,0.1373390558,-15776,9.6725935009,5,2.6829268293,-44,-0.3048780488,-10,0.6097560976,4,-0.0173913043,-46,-0.2,141,-0.687804878
13140510,25312.5,-3216,1.9717964439,304,0.1863887186,-15744,9.6529736358,5,2.6829268293,-44,-0.3048780488,-10,0.6097560976,2,-0.0086956522,-44,-0.1913043478,138,-0.6731707317
13141150,25332.03125,-3248,1.991416309,320,0.1961986511,-15728,9.6431637032,-16,2.9268292683,-48,0.9756097561,-10,0.6097560976,2,-0.0086956522,-42,-0.1826086957,141,-0.687804878
13141790,25351.5625,-3232,1.9816063765,304,0.1863887186,-15712,9.6333537707,-50,2.8658536585,-47,3.0487804878,-16,0.9756097561,2,-0.0086956522,-45,-0.1956521739,141,-0.687804878
13142430,25371.09375,-3104,1.903126916,336,0.2060085837,-15744,9.6529736358,-50,2.8658536585,-47,3.0487804878,-16,0.9756097561,4,-0.0173913043,-46,-0.2,142,-0.6926829268
13143070,25390.625,-3056,1.8736971183,432,0.264868179,-15760,9.6627835684,-22,2.6829268293,-44,1.3414634146,-19,1.1585365854,4,-0.0173913043,-39,-0.1695652174,141,-0.687804878
13143710,25410.15625,-3168,1.9423666462,416,0.2550582465,-15760,9.6627835684,-22,2.6829268293,-44,1.3414634146,-19,1.1585365854,3,-0.0130434783,-43,-0.1869565217,140,-0.6829268293
13144350,25429.6875,-3264,2.0012262416,400,0.2452483139,-15840,9.7118332311,-2,2.6219512195,-43,0.1219512195,-15,0.9146341463,5,-0.0217391304,-43,-0.1869565217,141,-0.687804878
13144990,25449.21875,-3232,1.9816063765,368,0.2256284488,-15872,9.7314530963,-3,2.4390243902,-40,0.1829268293,-11,0.6707317073,2,-0.0086956522,-45,-0.1956521739,141,-0.687804878
13145630,25468.75,-3312,2.0306560392,352,0.2158185162,-15856,9.7216431637,-3,2.4390243902,-40,0.1829268293,-11,0.6707317073,1,-0.0043478261,-46,-0.2,141,-0.687804878
13146270,25488.28125,-3328,2.0404659718,272,0.1667688535,-15872,9.7314530963,-15,2.6219512195,-43,0.9146341463,-4,0.243902439,4,-0.0173913043,-45,-0.1956521739,140,-0.6829268293
13146910,25507.8125,-3312,2.0306560392,320,0.1961986511,-15920,9.7608828939,-11,3.1097560976,-51,0.6707317073,-2,0.1219512195,3,-0.0130434783,-40,-0.1739130435,140,-0.6829268293
13147550,25527.34375,-3152,1.9325567137,320,0.1961986511,-15840,9.7118332311,-11,3.1097560976,-51,0.6707317073,-2,0.1219512195,2,-0.0086956522,-44,-0.1913043478,138,-0.6731707317
13148190,25546.875,-3152,1.9325567137,368,0.2256284488,-15824,9.7020232986,20,3.0487804878,-50,-1.2195121951,-5,0.3048780488,2,-0.0086956522,-42,-0.1826086957,139,-0.6780487805
13148830,25566.40625,-3264,2.0012262416,336,0.2060085837,-15824,9.7020232986,20,3.0487804878,-50,-1.2195121951,-5,0.3048780488,1,-0.0043478261,-40,-0.1739130435,139,-0.6780487805
13149470,25585.9375,-3232,1.9816063765,320,0.1961986511,-15824,9.7020232986,4,3.2926829268,-54,-0.243902439,-2,0.1219512195,0,0,-40,-0.1739130435,138,-0.6731707317
13150110,25605.46875,-3008,1.8442673207,304,0.1863887186,-15776,9.6725935009,30,3.4756097561,-57,-1.8292682927,3,-0.1829268293,1,-0.0043478261,-41,-0.1782608696,139,-0.6780487805
13150750,25625,-3024,1.8540772532,320,0.1961986511,-15696,9.6235438381,30,3.4756097561,-57,-1.8292682927,3,-0.1829268293,2,-0.0086956522,-41,-0.1782608696,140,-0.6829268293
13151390,25644.53125,-3328,2.0404659718,416,0.2550582465,-15696,9.6235438381,35,3.2317073171,-53,-2.1341463415,-9,0.5487804878,1,-0.0043478261,-41,-0.1782608696,141,-0.687804878
13152030,25664.0625,-3280,2.0110361741,352,0.2158185162,-15776,9.6725935009,35,3.2317073171,-53,-2.1341463415,-9,0.5487804878,3,-0.0130434783,-43,-0.1869565217,140,-0.6829268293
13152670,25683.59375,-3200,1.9619865113,320,0.1961986511,-15760,9.6627835684,-2,3.2317073171,-53,0.1219512195,-14,0.8536585366,2,-0.0086956522,-44,-0.1913043478,140,-0.6829268293
13153310,25703.125,-3200,1.9619865113,368,0.2256284488,-15664,9.603923973,2,2.8658536585,-47,-0.1219512195,-2,0.1219512195,1,-0.0043478261,-41,-0.1782608696,139,-0.6780487805
13153950,25722.65625,-3184,1.9521765788,352,0.2158185162,-15696,9.6235438381,2,2.8658536585,-47,-0.1219512195,-2,0.1219512195,3,-0.0130434783,-40,-0.1739130435,137,-0.6682926829
13154590,25742.1875,-3168,1.9423666462,320,0.1961986511,-15664,9.603923973,1,2.5,-41,-0.0609756098,-9,0.5487804878,4,-0.0173913043,-40,-0.1739130435,137,-0.6682926829
13155230,25761.71875,-3232,1.9816063765,320,0.1961986511,-15840,9.7118332311,1,2.5,-41,-0.0609756098,-9,0.5487804878,1,-0.0043478261,-41,-0.1782608696,139,-0.6780487805
13155870,25781.25,-3280,2.0110361741,352,0.2158185162,-15744,9.6529736358,-14,2.5,-41,0.8536585366,-13,0.7926829268,1,-0.0043478261,-43,-0.1869565217,140,-0.6829268293
13156510,25800.78125,-3216,1.9717964439,400,0.2452483139,-15712,9.6333537707,-13,2.6219512195,-43,0.7926829268,-12,0.7317073171,2,-0.0086956522,-45,-0.1956521739,140,-0.6829268293
13157150,25820.3125,-3232,1.9816063765,368,0.2256284488,-15696,9.6235438381,-13,2.6219512195,-43,0.7926829268,-12,0.7317073171,2,-0.0086956522,-41,-0.1782608696,139,-0.6780487805
13157790,25839.84375,-3184,1.9521765788,336,0.2060085837,-15616,9.5744941754,3,2.1341463415,-35,-0.1829268293,-12,0.7317073171,3,-0.0130434783,-45,-0.1956521739,141,-0.687804878
13158430,25859.375,-3280,2.0110361741,336,0.2060085837,-15632,9.5843041079,-17,1.9512195122,-32,1.0365853659,-8,0.487804878,2,-0.0086956522,-44,-0.1913043478,139,-0.6780487805
13159070,25878.90625,-3168,1.9423666462,240,0.1471489884,-15632,9.5843041079,-17,1.9512195122,-32,1.0365853659,-8,0.487804878,2,-0.0086956522,-46,-0.2,141,-0.687804878
13159710,25898.4375,-3120,1.9129368486,304,0.1863887186,-15712,9.6333537707,-10,1.4634146341,-24,0.6097560976,-14,0.8536585366,2,-0.0086956522,-41,-0.1782608696,138,-0.6731707317
13160350,25917.96875,-3152,1.9325567137,208,0.1275291232,-15680,9.6137339056,-10,1.4634146341,-24,0.6097560976,-14,0.8536585366,3,-0.0130434783,-42,-0.1826086957,139,-0.6780487805
13160990,25937.5,-3280,2.0110361741,240,0.1471489884,-15776,9.6725935009,13,1.4634146341,-24,-0.7926829268,-13,0.7926829268,2,-0.0086956522,-41,-0.1782608696,138,-0.6731707317
13161630,25957.03125,-3328,2.0404659718,336,0.2060085837,-15936,9.7706928265,7,1.5853658537,-26,-0.4268292683,-3,0.1829268293,2,-0.0086956522,-40,-0.1739130435,140,-0.6829268293
13162270,25976.5625,-3248,1.991416309,208,0.1275291232,-15968,9.7903126916,7,1.5853658537,-26,-0.4268292683,-3,0.1829268293,1,-0.0043478261,-41,-0.1782608696,140,-0.6829268293
13162910,25996.09375,-3328,2.0404659718,176,0.1079092581,-15968,9.7903126916,10,2.256097561,-37,-0.6097560976,-1,0.0609756098,1,-0.0043478261,-36,-0.1565217391,138,-0.6731707317
13163550,26015.625,-3264,2.0012262416,240,0.1471489884,-15968,9.7903126916,10,2.256097561,-37,-0.6097560976,-1,0.0609756098,3,-0.0130434783,-42,-0.1826086957,139,-0.6780487805
13164190,26035.15625,-3232,1.9816063765,304,0.1863887186,-16016,9.8197424893,0,2.4390243902,-40,0,-7,0.4268292683,3,-0.0130434783,-43,-0.1869565217,140,-0.6829268293
13164830,26054.6875,-3248,1.991416309,240,0.1471489884,-16016,9.8197424893,5,2.9268292683,-48,-0.3048780488,-3,0.1829268293,0,0,-42,-0.1826086957,139,-0.6780487805
13165470,26074.21875,-3280,2.0110361741,176,0.1079092581,-16000,9.8099325567,5,2.9268292683,-48,-0.3048780488,-3,0.1829268293,6,-0.0260869565,-46,-0.2,142,-0.6926829268
13166110,26093.75,-3232,1.9816063765,224,0.1373390558,-16016,9.8197424893,-1,3.5365853659,-58,0.0609756098,-3,0.1829268293,3,-0.0130434783,-41,-0.1782608696,138,-0.6731707317
13166750,26113.28125,-3200,1.9619865113,288,0.176578786,-15936,9.7706928265,14,3.4756097561,-57,-0.8536585366,-9,0.5487804878,1,-0.0043478261,-40,-0.1739130435,139,-0.6780487805
13167390,26132.8125,-3136,1.9227467811,224,0.1373390558,-15872,9.7314530963,14,3.4756097561,-57,-0.8536585366,-9,0.5487804878,2,-0.0086956522,-41,-0.1782608696,140,-0.6829268293
13168030,26152.34375,-3232,1.9816063765,144,0.088289393,-15808,9.692213366,31,3.7804878049,-62,-1.8902439024,-7,0.4268292683,2,-0.0086956522,-41,-0.1782608696,139,-0.6780487805
13168670,26171.875,-3392,2.079705702,128,0.0784794605,-15888,9.7412630288,31,3.7804878049,-62,-1.8902439024,-7,0.4268292683,1,-0.0043478261,-43,-0.1869565217,139,-0.6780487805
13169310,26191.40625,-3280,2.0110361741,192,0.1177191907,-15824,9.7020232986,-9,3.8414634146,-63,0.5487804878,-5,0.3048780488,1,-0.0043478261,-39,-0.1695652174,139,-0.6780487805
13169950,26210.9375,-3232,1.9816063765,160,0.0980993256,-15680,9.6137339056,12,3.2926829268,-54,-0.7317073171,-3,0.1829268293,2,-0.0086956522,-39,-0.1695652174,139,-0.6780487805
13170590,26230.46875,-3264,2.0012262416,224,0.1373390558,-15776,9.6725935009,12,3.2926829268,-54,-0.7317073171,-3,0.1829268293,2,-0.0086956522,-45,-0.1956521739,140,-0.6829268293
13171230,26250,-3232,1.9816063765,304,0.1863887186,-15792,9.6824034335,8,3.4146341463,-56,-0.487804878,-8,0.487804878,1,-0.0043478261,-41,-0.1782608696,139,-0.6780487805
13171870,26269.53125,-3248,1.991416309,272,0.1667688535,-15616,9.5744941754,8,3.4146341463,-56,-0.487804878,-8,0.487804878,5,-0.0217391304,-47,-0.2043478261,139,-0.6780487805
13172510,26289.0625,-3312,2.0306560392,304,0.1863887186,-15584,9.5548743102,-8,3.1707317073,-52,0.487804878,-7,0.4268292683,4,-0.0173913043,-43,-0.1869565217,140,-0.6829268293
13173150,26308.59375,-3264,2.0012262416,368,0.2256284488,-15712,9.6333537707,-15,2.5609756098,-42,0.9146341463,1,-0.0609756098,2,-0.0086956522,-41,-0.1782608696,140,-0.6829268293
13173790,26328.125,-3152,1.9325567137,192,0.1177191907,-15584,9.5548743102,-15,2.5609756098,-42,0.9146341463,1,-0.0609756098,2,-0.0086956522,-40,-0.1739130435,138,-0.6731707317
13174430,26347.65625,-3248,1.991416309,304,0.1863887186,-15632,9.5843041079,15,2.0731707317,-34,-0.9146341463,6,-0.3658536585,2,-0.0086956522,-37,-0.1608695652,139,-0.6780487805
13175070,26367.1875,-3280,2.0110361741,304,0.1863887186,-15664,9.603923973,15,2.0731707317,-34,-0.9146341463,6,-0.3658536585,1,-0.0043478261,-42,-0.1826086957,140,-0.6829268293
13175710,26386.71875,-3216,1.9717964439,272,0.1667688535,-15680,9.6137339056,13,1.5853658537,-26,-0.7926829268,1,-0.0609756098,1,-0.0043478261,-43,-0.1869565217,139,-0.6780487805
13176350,26406.25,-3232,1.9816063765,224,0.1373390558,-15776,9.6725935009,8,1.5243902439,-25,-0.487804878,-3,0.1829268293,3,-0.0130434783,-38,-0.1652173913,137,-0.6682926829
13176990,26425.78125,-3264,2.0012262416,256,0.1569589209,-15856,9.7216431637,8,1.5243902439,-25,-0.487804878,-3,0.1829268293,3,-0.0130434783,-40,-0.1739130435,138,-0.6731707317
13177630,26445.3125,-3184,1.9521765788,256,0.1569589209,-15824,9.7020232986,16,1.7073170732,-28,-0.9756097561,-6,0.3658536585,1,-0.0043478261,-41,-0.1782608696,138,-0.6731707317
13178270,26464.84375,-3296,2.0208461067,256,0.1569589209,-15840,9.7118332311,30,1.9512195122,-32,-1.8292682927,-5,0.3048780488,5,-0.0217391304,-42,-0.1826086957,139,-0.6780487805
13178910,26484.375,-3360,2.0600858369,160,0.0980993256,-15824,9.7020232986,30,1.9512195122,-32,-1.8292682927,-5,0.3048780488,4,-0.0173913043,-44,-0.1913043478,140,-0.6829268293
13179550,26503.90625,-3392,2.079705702,160,0.0980993256,-15872,9.7314530963,10,2.0731707317,-34,-0.6097560976,-4,0.243902439,2,-0.0086956522,-42,-0.1826086957,138,-0.6731707317
13180190,26523.4375,-3440,2.1091354997,112,0.0686695279,-15856,9.7216431637,10,2.0731707317,-34,-0.6097560976,-4,0.243902439,4,-0.0173913043,-43,-0.1869565217,140,-0.6829268293
13180830,26542.96875,-3376,2.0698957695,144,0.088289393,-15888,9.7412630288,-12,2.3780487805,-39,0.7317073171,-4,0.243902439,2,-0.0086956522,-39,-0.1695652174,139,-0.6780487805
13181470,26562.5,-3232,1.9816063765,160,0.0980993256,-15920,9.7608828939,17,2.4390243902,-40,-1.0365853659,-4,0.243902439,3,-0.0130434783,-44,-0.1913043478,139,-0.6780487805
13182110,26582.03125,-3312,2.0306560392,96,0.0588595953,-15792,9.6824034335,17,2.4390243902,-40,-1.0365853659,-4,0.243902439,2,-0.0086956522,-39,-0.1695652174,140,-0.6829268293
13182750,26601.5625,-3392,2.079705702,112,0.0686695279,-15808,9.692213366,-6,2.1951219512,-36,0.3658536585,-3,0.1829268293,1,-0.0043478261,-40,-0.1739130435,139,-0.6780487805
13183390,26621.09375,-3360,2.0600858369,160,0.0980993256,-15872,9.7314530963,-6,2.1951219512,-36,0.3658536585,-3,0.1829268293,4,-0.0173913043,-41,-0.1782608696,137,-0.6682926829
13184030,26640.625,-3200,1.9619865113,144,0.088289393,-15840,9.7118332311,-16,2.1951219512,-36,0.9756097561,-1,0.0609756098,3,-0.0130434783,-41,-0.1782608696,141,-0.687804878
13184670,26660.15625,-3248,1.991416309,96,0.0588595953,-15776,9.6725935009,25,2.3170731707,-38,-1.5243902439,-2,0.1219512195,3,-0.0130434783,-42,-0.1826086957,141,-0.687804878
13185310,26679.6875,-3360,2.0600858369,160,0.0980993256,-15856,9.7216431637,25,2.3170731707,-38,-1.5243902439,-2,0.1219512195,3,-0.0130434783,-45,-0.1956521739,141,-0.687804878
13185950,26699.21875,-3328,2.0404659718,176,0.1079092581,-15792,9.6824034335,-3,2.6219512195,-43,0.1829268293,-3,0.1829268293,2,-0.0086956522,-37,-0.1608695652,138,-0.6731707317
13186590,26718.75,-3328,2.0404659718,160,0.0980993256,-15920,9.7608828939,-3,2.6219512195,-43,0.1829268293,-3,0.1829268293,1,-0.0043478261,-41,-0.1782608696,139,-0.6780487805
13187230,26738.28125,-3280,2.0110361741,96,0.0588595953,-15904,9.7510729614,4,2.8048780488,-46,-0.243902439,-1,0.0609756098,5,-0.0217391304,-42,-0.1826086957,140,-0.6829268293
13187870,26757.8125,-3360,2.0600858369,112,0.0686695279,-15888,9.7412630288,0,3.1097560976,-51,0,1,-0.0609756098,5,-0.0217391304,-44,-0.1913043478,139,-0.6780487805
13188510,26777.34375,-3360,2.0600858369,80,0.0490496628,-15808,9.692213366,0,3.1097560976,-51,0,1,-0.0609756098,2,-0.0086956522,-38,-0.1652173913,137,-0.6682926829
13189150,26796.875,-3328,2.0404659718,80,0.0490496628,-15840,9.7118332311,2,3.5975609756,-59,-0.1219512195,0,0,1,-0.0043478261,-41,-0.1782608696,139,-0.6780487805
13189790,26816.40625,-3360,2.0600858369,96,0.0588595953,-15856,9.7216431637,-6,3.4756097561,-57,0.3658536585,-2,0.1219512195,2,-0.0086956522,-37,-0.1608695652,139,-0.6780487805
13190430,26835.9375,-3280,2.0110361741,176,0.1079092581,-15920,9.7608828939,-6,3.4756097561,-57,0.3658536585,-2,0.1219512195,2,-0.0086956522,-44,-0.1913043478,140,-0.6829268293
13191070,26855.46875,-3264,2.0012262416,80,0.0490496628,-15920,9.7608828939,-2,3.4146341463,-56,0.1219512195,-2,0.1219512195,2,-0.0086956522,-45,-0.1956521739,141,-0.687804878
13191710,26875,-3360,2.0600858369,80,0.0490496628,-15856,9.7216431637,-2,3.4146341463,-56,0.1219512195,-2,0.1219512195,5,-0.0217391304,-45,-0.1956521739,139,-0.6780487805
13192350,26894.53125,-3344,2.0502759044,304,0.1863887186,-15904,9.7510729614,-15,3.8414634146,-63,0.9146341463,-3,0.1829268293,2,-0.0086956522,-40,-0.1739130435,138,-0.6731707317
13192990,26914.0625,-3280,2.0110361741,208,0.1275291232,-15920,9.7608828939,-4,4.3902439024,-72,0.243902439,-7,0.4268292683,2,-0.0086956522,-41,-0.1782608696,139,-0.6780487805
13193630,26933.59375,-3392,2.079705702,320,0.1961986511,-15888,9.7412630288,-4,4.3902439024,-72,0.243902439,-7,0.4268292683,3,-0.0130434783,-41,-0.1782608696,139,-0.6780487805
13194270,26953.125,-3312,2.0306560392,272,0.1667688535,-15776,9.6725935009,-8,4.3292682927,-71,0.487804878,-11,0.6707317073,4,-0.0173913043,-41,-0.1782608696,138,-0.6731707317
13194910,26972.65625,-3328,2.0404659718,192,0.1177191907,-15568,9.5450643777,-8,4.3292682927,-71,0.487804878,-11,0.6707317073,2,-0.0086956522,-40,-0.1739130435,140,-0.6829268293
13195550,26992.1875,-3376,2.0698957695,224,0.1373390558,-15600,9.5646842428,16,4.0853658537,-67,-0.9756097561,-4,0.243902439,2,-0.0086956522,-43,-0.1869565217,139,-0.6780487805
13196190,27011.71875,-3312,2.0306560392,288,0.176578786,-15648,9.5941140405,2,3.5975609756,-59,-0.1219512195,-1,0.0609756098,1,-0.0043478261,-38,-0.1652173913,140,-0.6829268293
13196830,27031.25,-3264,2.0012262416,240,0.1471489884,-15680,9.6137339056,2,3.5975609756,-59,-0.1219512195,-1,0.0609756098,4,-0.0173913043,-41,-0.1782608696,139,-0.6780487805
13197470,27050.78125,-3376,2.0698957695,208,0.1275291232,-15584,9.5548743102,15,3.1707317073,-52,-0.9146341463,9,-0.5487804878,3,-0.0130434783,-42,-0.1826086957,140,-0.6829268293
13198110,27070.3125,-3280,2.0110361741,208,0.1275291232,-15600,9.5646842428,15,3.1707317073,-52,-0.9146341463,9,-0.5487804878,3,-0.0130434783,-44,-0.1913043478,140,-0.6829268293
13198750,27089.84375,-3344,2.0502759044,128,0.0784794605,-15648,9.5941140405,8,2.5,-41,-0.487804878,7,-0.4268292683,2,-0.0086956522,-38,-0.1652173913,139,-0.6780487805
13199390,27109.375,-3376,2.0698957695,160,0.0980993256,-15584,9.5548743102,-5,2.3780487805,-39,0.3048780488,0,0,4,-0.0173913043,-43,-0.1869565217,139,-0.6780487805
13200030,27128.90625,-3328,2.0404659718,256,0.1569589209,-15680,9.6137339056,-5,2.3780487805,-39,0.3048780488,0,0,2,-0.0086956522,-45,-0.1956521739,141,-0.687804878
13200670,27148.4375,-3232,1.9816063765,368,0.2256284488,-15712,9.6333537707,-3,1.9512195122,-32,0.1829268293,-4,0.243902439,4,-0.0173913043,-38,-0.1652173913,137,-0.6682926829
13201310,27167.96875,-3312,2.0306560392,272,0.1667688535,-15696,9.6235438381,9,2.0731707317,-34,-0.5487804878,-3,0.1829268293,6,-0.0260869565,-45,-0.1956521739,139,-0.6780487805
13201950,27187.5,-3424,2.0993255671,272,0.1667688535,-15792,9.6824034335,9,2.0731707317,-34,-0.5487804878,-3,0.1829268293,1,-0.0043478261,-46,-0.2,139,-0.6780487805
13202590,27207.03125,-3376,2.0698957695,240,0.1471489884,-15856,9.7216431637,-5,2.4390243902,-40,0.3048780488,-3,0.1829268293,2,-0.0086956522,-42,-0.1826086957,140,-0.6829268293
13203230,27226.5625,-3376,2.0698957695,240,0.1471489884,-15904,9.7510729614,-5,2.4390243902,-40,0.3048780488,-3,0.1829268293,3,-0.0130434783,-41,-0.1782608696,137,-0.6682926829
13203870,27246.09375,-3392,2.079705702,272,0.1667688535,-15824,9.7020232986,-6,2.256097561,-37,0.3658536585,-4,0.243902439,3,-0.0130434783,-41,-0.1782608696,139,-0.6780487805
13204510,27265.625,-3328,2.0404659718,176,0.1079092581,-15872,9.7314530963,-10,2.3170731707,-38,0.6097560976,-3,0.1829268293,3,-0.0130434783,-40,-0.1739130435,140,-0.6829268293
13205150,27285.15625,-3264,2.0012262416,176,0.1079092581,-15840,9.7118332311,-10,2.3170731707,-38,0.6097560976,-3,0.1829268293,1,-0.0043478261,-43,-0.1869565217,140,-0.6829268293
13205790,27304.6875,-3216,1.9717964439,96,0.0588595953,-15776,9.6725935009,-5,2.6829268293,-44,0.3048780488,-5,0.3048780488,3,-0.0130434783,-40,-0.1739130435,139,-0.6780487805
13206430,27324.21875,-3360,2.0600858369,128,0.0784794605,-15856,9.7216431637,-5,2.6829268293,-44,0.3048780488,-5,0.3048780488,4,-0.0173913043,-43,-0.1869565217,139,-0.6780487805
13207070,27343.75,-3440,2.1091354997,160,0.0980993256,-15872,9.7314530963,-5,2.8658536585,-47,0.3048780488,-8,0.487804878,3,-0.0130434783,-44,-0.1913043478,139,-0.6780487805
13207710,27363.28125,-3296,2.0208461067,144,0.088289393,-15920,9.7608828939,-9,3.0487804878,-50,0.5487804878,-7,0.4268292683,3,-0.0130434783,-40,-0.1739130435,139,-0.6780487805
13208350,27382.8125,-3360,2.0600858369,160,0.0980993256,-15888,9.7412630288,-9,3.0487804878,-50,0.5487804878,-7,0.4268292683,4,-0.0173913043,-41,-0.1782608696,138,-0.6731707317
13208990,27402.34375,-3424,2.0993255671,176,0.1079092581,-15904,9.7510729614,-22,3.4756097561,-57,1.3414634146,-5,0.3048780488,5,-0.0217391304,-41,-0.1782608696,138,-0.6731707317
13209630,27421.875,-3360,2.0600858369,176,0.1079092581,-15856,9.7216431637,-22,3.4756097561,-57,1.3414634146,-5,0.3048780488,1,-0.0043478261,-44,-0.1913043478,139,-0.6780487805
13210270,27441.40625,-3360,2.0600858369,192,0.1177191907,-15904,9.7510729614,-29,3.5975609756,-59,1.7682926829,-8,0.487804878,3,-0.0130434783,-42,-0.1826086957,139,-0.6780487805
13210910,27460.9375,-3376,2.0698957695,208,0.1275291232,-15776,9.6725935009,-15,3.7804878049,-62,0.9146341463,-9,0.5487804878,3,-0.0130434783,-43,-0.1869565217,138,-0.6731707317
13211550,27480.46875,-3408,2.0895156346,208,0.1275291232,-15728,9.6431637032,-15,3.7804878049,-62,0.9146341463,-9,0.5487804878,5,-0.0217391304,-45,-0.1956521739,140,-0.6829268293
13212190,27500,-3264,2.0012262416,240,0.1471489884,-15712,9.6333537707,-31,3.4146341463,-56,1.8902439024,-11,0.6707317073,3,-0.0130434783,-40,-0.1739130435,138,-0.6731707317
13212830,27519.53125,-3296,2.0208461067,160,0.0980993256,-15792,9.6824034335,-4,3.2926829268,-54,0.243902439,-3,0.1829268293,3,-0.0130434783,-44,-0.1913043478,140,-0.6829268293
13213470,27539.0625,-3312,2.0306560392,144,0.088289393,-15760,9.6627835684,-4,3.2926829268,-54,0.243902439,-3,0.1829268293,3,-0.0130434783,-43,-0.1869565217,141,-0.687804878
13214110,27558.59375,-3280,2.0110361741,160,0.0980993256,-15744,9.6529736358,-3,3.2317073171,-53,0.1829268293,-4,0.243902439,4,-0.0173913043,-41,-0.1782608696,138,-0.6731707317
13214750,27578.125,-3280,2.0110361741,256,0.1569589209,-15760,9.6627835684,-3,3.2317073171,-53,0.1829268293,-4,0.243902439,4,-0.0173913043,-46,-0.2,140,-0.6829268293
13215390,27597.65625,-3264,2.0012262416,240,0.1471489884,-15904,9.7510729614,-9,3.2317073171,-53,0.5487804878,-10,0.6097560976,4,-0.0173913043,-42,-0.1826086957,140,-0.6829268293
13216030,27617.1875,-3280,2.0110361741,192,0.1177191907,-15856,9.7216431637,4,3.5975609756,-59,-0.243902439,-6,0.3658536585,1,-0.0043478261,-44,-0.1913043478,140,-0.6829268293
13216670,27636.71875,-3328,2.0404659718,160,0.0980993256,-15696,9.6235438381,4,3.5975609756,-59,-0.243902439,-6,0.3658536585,4,-0.0173913043,-46,-0.2,141,-0.687804878
13217310,27656.25,-3248,1.991416309,224,0.1373390558,-15728,9.6431637032,10,3.1707317073,-52,-0.6097560976,-6,0.3658536585,1,-0.0043478261,-46,-0.2,140,-0.6829268293
13217950,27675.78125,-3200,1.9619865113,272,0.1667688535,-15792,9.6824034335,10,3.1707317073,-52,-0.6097560976,-6,0.3658536585,3,-0.0130434783,-42,-0.1826086957,139,-0.6780487805
13218590,27695.3125,-3376,2.0698957695,256,0.1569589209,-15792,9.6824034335,30,3.1707317073,-52,-1.8292682927,-2,0.1219512195,2,-0.0086956522,-38,-0.1652173913,139,-0.6780487805
13219230,27714.84375,-3408,2.0895156346,240,0.1471489884,-15696,9.6235438381,4,3.1097560976,-51,-0.243902439,-1,0.0609756098,4,-0.0173913043,-41,-0.1782608696,139,-0.6780487805
13219870,27734.375,-3504,2.1483752299,224,0.1373390558,-15712,9.6333537707,4,3.1097560976,-51,-0.243902439,-1,0.0609756098,4,-0.0173913043,-45,-0.1956521739,138,-0.6731707317
13220510,27753.90625,-3392,2.079705702,208,0.1275291232,-15792,9.6824034335,-15,2.6829268293,-44,0.9146341463,2,-0.1219512195,3,-0.0130434783,-45,-0.1956521739,140,-0.6829268293
13221150,27773.4375,-3280,2.0110361741,160,0.0980993256,-15776,9.6725935009,-15,2.6829268293,-44,0.9146341463,2,-0.1219512195,2,-0.0086956522,-37,-0.1608695652,139,-0.6780487805
13221790,27792.96875,-3360,2.0600858369,160,0.0980993256,-15744,9.6529736358,11,2.987804878,-49,-0.6707317073,2,-0.1219512195,2,-0.0086956522,-44,-0.1913043478,141,-0.687804878
13222430,27812.5,-3312,2.0306560392,112,0.0686695279,-15824,9.7020232986,8,2.6829268293,-44,-0.487804878,0,0,3,-0.0130434783,-45,-0.1956521739,140,-0.6829268293
13223070,27832.03125,-3376,2.0698957695,192,0.1177191907,-15760,9.6627835684,8,2.6829268293,-44,-0.487804878,0,0,3,-0.0130434783,-39,-0.1695652174,137,-0.6682926829
13223710,27851.5625,-3376,2.0698957695,208,0.1275291232,-15760,9.6627835684,-9,2.987804878,-49,0.5487804878,0,0,4,-0.0173913043,-46,-0.2,138,-0.6731707317
13224350,27871.09375,-3328,2.0404659718,192,0.1177191907,-15872,9.7314530963,-19,3.2926829268,-54,1.1585365854,0,0,4,-0.0173913043,-42,-0.1826086957,140,-0.6829268293
13224990,27890.625,-3280,2.0110361741,256,0.1569589209,-15888,9.7412630288,-19,3.2926829268,-54,1.1585365854,0,0,1,-0.0043478261,-42,-0.1826086957,140,-0.6829268293
13225630,27910.15625,-3232,1.9816063765,176,0.1079092581,-15888,9.7412630288,23,2.987804878,-49,-1.4024390244,1,-0.0609756098,3,-0.0130434783,-42,-0.1826086957,139,-0.6780487805
13226270,27929.6875,-3296,2.0208461067,208,0.1275291232,-15792,9.6824034335,23,2.987804878,-49,-1.4024390244,1,-0.0609756098,5,-0.0217391304,-43,-0.1869565217,138,-0.6731707317
13226910,27949.21875,-3504,2.1483752299,256,0.1569589209,-15808,9.692213366,4,3.2926829268,-54,-0.243902439,3,-0.1829268293,2,-0.0086956522,-41,-0.1782608696,140,-0.6829268293
13227550,27968.75,-3248,1.991416309,160,0.0980993256,-15824,9.7020232986,-35,3.0487804878,-50,2.1341463415,-2,0.1219512195,2,-0.0086956522,-42,-0.1826086957,139,-0.6780487805
13228190,27988.28125,-3120,1.9129368486,176,0.1079092581,-15840,9.7118332311,-35,3.0487804878,-50,2.1341463415,-2,0.1219512195,4,-0.0173913043,-44,-0.1913043478,139,-0.6780487805
13228830,28007.8125,-3168,1.9423666462,192,0.1177191907,-15856,9.7216431637,-13,3.1707317073,-52,0.7926829268,5,-0.3048780488,4,-0.0173913043,-39,-0.1695652174,139,-0.6780487805
13229470,28027.34375,-3120,1.9129368486,176,0.1079092581,-15808,9.692213366,-13,3.1707317073,-52,0.7926829268,5,-0.3048780488,4,-0.0173913043,-43,-0.1869565217,139,-0.6780487805
13230110,28046.875,-3056,1.8736971183,272,0.1667688535,-15888,9.7412630288,-11,3.7804878049,-62,0.6707317073,-8,0.487804878,2,-0.0086956522,-42,-0.1826086957,139,-0.6780487805
13230750,28066.40625,-3088,1.8933169834,208,0.1275291232,-15792,9.6824034335,14,4.2682926829,-70,-0.8536585366,-22,1.3414634146,0,0,-44,-0.1913043478,139,-0.6780487805
13231390,28085.9375,-3200,1.9619865113,320,0.1961986511,-15776,9.6725935009,14,4.2682926829,-70,-0.8536585366,-22,1.3414634146,1,-0.0043478261,-44,-0.1913043478,141,-0.687804878
13232030,28105.46875,-3264,2.0012262416,272,0.1667688535,-15776,9.6725935009,-18,4.3292682927,-71,1.0975609756,-31,1.8902439024,1,-0.0043478261,-40,-0.1739130435,137,-0.6682926829
13232670,28125,-3248,1.991416309,304,0.1863887186,-15728,9.6431637032,-1,3.9634146341,-65,0.0609756098,-23,1.4024390244,-1,0.0043478261,-40,-0.1739130435,139,-0.6780487805
13233310,28144.53125,-3312,2.0306560392,336,0.2060085837,-15744,9.6529736358,-1,3.9634146341,-65,0.0609756098,-23,1.4024390244,3,-0.0130434783,-45,-0.1956521739,139,-0.6780487805
13233950,28164.0625,-3376,2.0698957695,368,0.2256284488,-15728,9.6431637032,11,3.5365853659,-58,-0.6707317073,-9,0.5487804878,0,0,-45,-0.1956521739,140,-0.6829268293
13234590,28183.59375,-3456,2.1189454323,352,0.2158185162,-15680,9.6137339056,11,3.5365853659,-58,-0.6707317073,-9,0.5487804878,3,-0.0130434783,-42,-0.1826086957,140,-0.6829268293
13235230,28203.125,-3440,2.1091354997,368,0.2256284488,-15744,9.6529736358,-6,3.1097560976,-51,0.3658536585,-9,0.5487804878,3,-0.0130434783,-41,-0.1782608696,140,-0.6829268293
13235870,28222.65625,-3280,2.0110361741,272,0.1667688535,-15808,9.692213366,6,3.6585365854,-60,-0.3658536585,-11,0.6707317073,0,0,-44,-0.1913043478,140,-0.6829268293
13236510,28242.1875,-3360,2.0600858369,192,0.1177191907,-15808,9.692213366,6,3.6585365854,-60,-0.3658536585,-11,0.6707317073,4,-0.0173913043,-45,-0.1956521739,140,-0.6829268293
13237150,28261.71875,-3376,2.0698957695,240,0.1471489884,-15776,9.6725935009,-4,3.4146341463,-56,0.243902439,-9,0.5487804878,4,-0.0173913043,-43,-0.1869565217,138,-0.6731707317
13237790,28281.25,-3280,2.0110361741,240,0.1471489884,-15744,9.6529736358,-4,3.4146341463,-56,0.243902439,-9,0.5487804878,5,-0.0217391304,-46,-0.2,141,-0.687804878
13238430,28300.78125,-3312,2.0306560392,272,0.1667688535,-15696,9.6235438381,19,3.2926829268,-54,-1.1585365854,-6,0.3658536585,4,-0.0173913043,-43,-0.1869565217,139,-0.6780487805
13239070,28320.3125,-3408,2.0895156346,208,0.1275291232,-15824,9.7020232986,2,3.5365853659,-58,-0.1219512195,-4,0.243902439,3,-0.0130434783,-46,-0.2,139,-0.6780487805
13239710,28339.84375,-3472,2.1287553648,240,0.1471489884,-15680,9.6137339056,2,3.5365853659,-58,-0.1219512195,-4,0.243902439,3,-0.0130434783,-44,-0.1913043478,139,-0.6780487805
13240350,28359.375,-3360,2.0600858369,336,0.2060085837,-15744,9.6529736358,-3,3.2926829268,-54,0.1829268293,2,-0.1219512195,4,-0.0173913043,-43,-0.1869565217,139,-0.6780487805
13240990,28378.90625,-3328,2.0404659718,192,0.1177191907,-15840,9.7118332311,-3,3.2926829268,-54,0.1829268293,2,-0.1219512195,3,-0.0130434783,-39,-0.1695652174,138,-0.6731707317
13241630,28398.4375,-3360,2.0600858369,288,0.176578786,-15776,9.6725935009,7,3.2317073171,-53,-0.4268292683,4,-0.243902439,3,-0.0130434783,-45,-0.1956521739,140,-0.6829268293
13242270,28417.96875,-3296,2.0208461067,288,0.176578786,-15744,9.6529736358,-8,3.4146341463,-56,0.487804878,1,-0.0609756098,3,-0.0130434783,-46,-0.2,140,-0.6829268293
13242910,28437.5,-3200,1.9619865113,240,0.1471489884,-15664,9.603923973,-8,3.4146341463,-56,0.487804878,1,-0.0609756098,3,-0.0130434783,-42,-0.1826086957,141,-0.687804878
13243550,28457.03125,-3392,2.079705702,240,0.1471489884,-15776,9.6725935009,21,3.0487804878,-50,-1.2804878049,-3,0.1829268293,2,-0.0086956522,-42,-0.1826086957,140,-0.6829268293
13244190,28476.5625,-3312,2.0306560392,288,0.176578786,-15872,9.7314530963,-2,2.6219512195,-43,0.1219512195,3,-0.1829268293,4,-0.0173913043,-42,-0.1826086957,141,-0.687804878
13244830,28496.09375,-3296,2.0208461067,240,0.1471489884,-15760,9.6627835684,-2,2.6219512195,-43,0.1219512195,3,-0.1829268293,5,-0.0217391304,-42,-0.1826086957,141,-0.687804878
13245470,28515.625,-3344,2.0502759044,240,0.1471489884,-15760,9.6627835684,-17,3.1097560976,-51,1.0365853659,-1,0.0609756098,4,-0.0173913043,-40,-0.1739130435,138,-0.6731707317
13246110,28535.15625,-3184,1.9521765788,256,0.1569589209,-15856,9.7216431637,-17,3.1097560976,-51,1.0365853659,-1,0.0609756098,3,-0.0130434783,-42,-0.1826086957,139,-0.6780487805
13246750,28554.6875,-3232,1.9816063765,320,0.1961986511,-15760,9.6627835684,-5,3.4146341463,-56,0.3048780488,-7,0.4268292683,3,-0.0130434783,-43,-0.1869565217,140,-0.6829268293
13247390,28574.21875,-3328,2.0404659718,352,0.2158185162,-15760,9.6627835684,5,3.1097560976,-51,-0.3048780488,-15,0.9146341463,3,-0.0130434783,-43,-0.1869565217,139,-0.6780487805
13248030,28593.75,-3424,2.0993255671,400,0.2452483139,-15792,9.6824034335,5,3.1097560976,-51,-0.3048780488,-15,0.9146341463,3,-0.0130434783,-47,-0.2043478261,140,-0.6829268293
13248670,28613.28125,-3536,2.167995095,320,0.1961986511,-15696,9.6235438381,-2,3.4756097561,-57,0.1219512195,-3,0.1829268293,4,-0.0173913043,-39,-0.1695652174,136,-0.6634146341
13249310,28632.8125,-3376,2.0698957695,352,0.2158185162,-15696,9.6235438381,-2,3.4756097561,-57,0.1219512195,-3,0.1829268293,3,-0.0130434783,-40,-0.1739130435,139,-0.6780487805
13249950,28652.34375,-3232,1.9816063765,352,0.2158185162,-15680,9.6137339056,-6,3.5365853659,-58,0.3658536585,-3,0.1829268293,4,-0.0173913043,-43,-0.1869565217,140,-0.6829268293
13250590,28671.875,-3312,2.0306560392,384,0.2354383814,-15728,9.6431637032,25,3.1097560976,-51,-1.5243902439,3,-0.1829268293,2,-0.0086956522,-44,-0.1913043478,138,-0.6731707317
13251230,28691.40625,-3408,2.0895156346,352,0.2158185162,-15632,9.5843041079,25,3.1097560976,-51,-1.5243902439,3,-0.1829268293,2,-0.0086956522,-45,-0.1956521739,140,-0.6829268293
13251870,28710.9375,-3440,2.1091354997,352,0.2158185162,-15712,9.6333537707,-9,2.8658536585,-47,0.5487804878,2,-0.1219512195,2,-0.0086956522,-40,-0.1739130435,139,-0.6780487805
13252510,28730.46875,-3296,2.0208461067,384,0.2354383814,-15744,9.6529736358,-9,2.8658536585,-47,0.5487804878,2,-0.1219512195,3,-0.0130434783,-45,-0.1956521739,139,-0.6780487805
13253150,28750,-3248,1.991416309,336,0.2060085837,-15744,9.6529736358,2,2.9268292683,-48,-0.1219512195,5,-0.3048780488,3,-0.0130434783,-44,-0.1913043478,138,-0.6731707317
13253790,28769.53125,-3344,2.0502759044,336,0.2060085837,-15776,9.6725935009,19,2.8048780488,-46,-1.1585365854,3,-0.1829268293,4,-0.0173913043,-43,-0.1869565217,140,-0.6829268293
13254430,28789.0625,-3408,2.0895156346,384,0.2354383814,-15776,9.6725935009,19,2.8048780488,-46,-1.1585365854,3,-0.1829268293,2,-0.0086956522,-41,-0.1782608696,137,-0.6682926829
13255070,28808.59375,-3296,2.0208461067,320,0.1961986511,-15792,9.6824034335,-11,2.8658536585,-47,0.6707317073,4,-0.243902439,2,-0.0086956522,-37,-0.1608695652,137,-0.6682926829
13255710,28828.125,-3248,1.991416309,384,0.2354383814,-15712,9.6333537707,20,2.6219512195,-43,-1.2195121951,2,-0.1219512195,3,-0.0130434783,-38,-0.1652173913,138,-0.6731707317
13256350,28847.65625,-3280,2.0110361741,304,0.1863887186,-15808,9.692213366,20,2.6219512195,-43,-1.2195121951,2,-0.1219512195,1,-0.0043478261,-37,-0.1608695652,138,-0.6731707317
